**HEADER
RELEASE   Release of TYDEX-Format                 1.3
MEASID    Measurement ID                          cvert_2p7_13fz342_P06cam0_G07_dP00_110199_02
SUPPLIER  Data Supplier                           ika-fka / SteiReP / friederichs
DATE      Date                                    30/01/20
CLCKTIME  Clocktime                               14:07

**COMMENTS
------------------------------------
Bridgestone Potenza S001 MO 245/50R18 100W DOT4918
Vertical tyre stiffness on flat surface on transversal cleat at 6.1 deg camber
------------------------------------

**CONSTANTS
LOCATION  Location                      -         ika-fka, Aachen
MANUFACT  Tyre brand name               -         Bridgestone
IDENTITY  Commercial name               -         Potenza S001 MO
INFLPRES  Inflation Pressure            bar       2.7
TYREMASS  Tyre mass                     kg        11.95
OVALLDIA  Measured outside diameter     m         0.708
NOMDIAME  Nominal diameter of tyre      m         0.7022
NOMWIDTH  Nominal section width of tyre m         0.245
ASPRATIO  Nominal aspect ratio          -         0.5
SPEEDSYM  Speed symbol                  -         W
LOADIND   Load index                    -         100
TYROTIN   Tyre rot. inertia about YC    kgm2      1.233
RIMDIAME  Nominal rim diameter          m         0.4572
RIMWIDTH  Rim width                     m         0.2032
RIMROTIN  Rim rotational inertia        kgm2      0.386
TESTRIG   Test rig                      -         Stiffness Tyre Test Rig
CURVTRSF  Curvature of track surface    1/m       0
TRCKSURF  Surface of Track              -         Korund P80
TRCKCOND  Condition of Track Surface    -         dry
OBSTTYPE  Type of obstacle              -         G07
OBSTSURF  Surface of obstacle           -         Steel
CLEAT_H   Cleat height                  m         0.01
CLEAT_L   Cleat length                  m         0.02
CLT_BVED  Cleat bevel edge              m         0.002
CLT_ORI   Cleat orientation             deg       0
SLIPANGL  Slip angle                    deg       0
INCLANGL  Inclination angle             deg       6.1
LONGVEL   Longitudinal velocity         m/s       0

**MEASURCHANNELS
RUNTIME   Running Time                  s         1         0         0
FZW       Vertical Force                N         1         0         0
INCLANGL  Inclination angle             deg       1         0         0
TYREDEFW  Tyre deflection               mm        1         0         0
DSTGRWHC  Dist. ground - WHL. centre    mm        1         0         0
TRDTEMP   Tread Surface Temperature     deg C     1         0         0

**MEASURDATA
0         1.29664   6.11176   -0.0611953 353.583   22.4149   
0.1       2.17294   6.11176   0.355573  353.167   22.4537   
0.2       40.2931   6.11176   0.769436  352.753   22.4125   
0.3       77.9121   6.11176   1.16487   352.357   22.3303   
0.4       124.83    6.11176   1.55129   351.971   22.4332   
0.5       163.851   6.11176   1.92761   351.595   22.4225   
0.6       208.899   6.11176   2.31418   351.208   22.4079   
0.7       256.267   6.11176   2.69964   350.823   22.4211   
0.8       306.081   6.11176   3.08096   350.441   22.4272   
0.9       364.874   6.11176   3.45065   350.072   22.4532   
1         407.487   6.11176   3.80093   349.721   22.4492   
1.1       463.621   6.11176   4.15114   349.371   22.4211   
1.2       515.348   6.11176   4.47692   349.045   22.4363   
1.3       567.064   6.11176   4.78882   348.733   22.4551   
1.4       610.789   6.11176   5.09251   348.43    22.4588   
1.5       656.419   6.11176   5.38363   348.139   22.4724   
1.6       700.949   6.11176   5.67894   347.843   22.4648   
1.7       745.228   6.11176   5.96876   347.553   22.4744   
1.8       788.929   6.11176   6.24603   347.276   22.4141   
1.9       835.784   6.11176   6.51478   347.007   22.3691   
2         876.009   6.11176   6.771     346.751   22.3807   
2.1       919.763   6.11176   7.02662   346.496   22.4644   
2.2       966.343   6.11176   7.2787    346.243   22.4325   
2.3       1003.97   6.11176   7.5303    345.992   22.4492   
2.4       1048.52   6.11176   7.77766   345.745   22.4349   
2.5       1091.23   6.11176   8.03064   345.492   22.3746   
2.6       1137.73   6.11176   8.28062   345.242   22.4263   
2.7       1180.6    6.11176   8.51689   345.005   22.4199   
2.8       1220.92   6.11176   8.76205   344.76    22.4343   
2.9       1268.33   6.11176   8.99877   344.523   22.4657   
3         1311.03   6.11176   9.24043   344.282   22.4607   
3.1       1356.52   6.11176   9.49651   344.026   22.4634   
3.2       1403.49   6.11176   9.74481   343.777   22.4259   
3.3       1448.94   6.11176   9.99024   343.532   22.4358   
3.4       1497.79   6.11176   10.2145   343.308   22.4384   
3.5       1529.81   6.11176   10.4377   343.084   22.405    
3.6       1585.02   6.11176   10.6683   342.854   22.4031   
3.7       1622      6.11176   10.8832   342.639   22.3818   
3.8       1658.1    6.11176   11.1128   342.409   22.4169   
3.9       1704.06   6.11176   11.3417   342.18    22.4119   
4         1742.86   6.11176   11.5732   341.949   22.3882   
4.1       1784      6.11176   11.799    341.723   22.4123   
4.2       1821.68   6.11176   12.0139   341.508   22.3909   
4.3       1853.45   6.11176   12.2363   341.286   22.4425   
4.4       1898.66   6.11176   12.4737   341.048   22.4494   
4.5       1938.81   6.11176   12.6984   340.824   22.4646   
4.6       1982.72   6.11176   12.9311   340.591   22.4474   
4.7       2020.41   6.11176   13.1618   340.36    22.4291   
4.8       2065.55   6.11176   13.4022   340.12    22.4392   
4.9       2111.37   6.11176   13.637    339.885   22.4729   
5         2157.18   6.11176   13.8594   339.663   22.4464   
5.1       2194.52   6.11176   14.0807   339.441   22.4528   
5.2       2234.8    6.11176   14.3178   339.204   22.427    
5.3       2282.95   6.11176   14.5549   338.967   22.4463   
5.4       2323.08   6.11176   14.7804   338.742   22.4751   
5.5       2372.84   6.11176   15.0157   338.506   22.4224   
5.6       2419.26   6.11176   15.2346   338.288   22.3806   
5.7       2459.53   6.11176   15.4465   338.076   22.4427   
5.8       2494.98   6.11176   15.6534   337.869   22.4618   
5.9       2532.91   6.11176   15.8716   337.651   22.4604   
6         2584.44   6.11176   16.0941   337.428   22.4134   
6.1       2623.99   6.11176   16.3254   337.197   22.3757   
6.2       2668.29   6.11176   16.5588   336.963   22.4495   
6.3       2712.76   6.11176   16.793    336.729   22.4382   
6.4       2762.66   6.11176   17.0264   336.496   22.4563   
6.5       2804.52   6.11176   17.2444   336.278   22.4589   
6.6       2844.84   6.11176   17.4555   336.067   22.4724   
6.7       2889.11   6.11176   17.676    335.846   22.4686   
6.8       2929.85   6.11176   17.8912   335.631   22.47     
6.9       2970.76   6.11176   18.1015   335.421   22.4625   
7         3017.16   6.11176   18.3164   335.206   22.4635   
7.1       3051.79   6.11176   18.5237   334.998   22.4666   
7.2       3094.27   6.11176   18.737    334.785   22.4599   
7.3       3133.93   6.11176   18.9428   334.579   22.4567   
7.4       3178.98   6.11176   19.1611   334.361   22.4306   
7.5       3222.6    6.11176   19.3685   334.154   22.4476   
7.6       3254.9    6.11176   19.5715   333.951   22.4278   
7.7       3303      6.11176   19.7892   333.733   22.366    
7.8       3336.53   6.11176   19.9963   333.526   22.4243   
7.9       3381.32   6.11176   20.2197   333.302   22.4522   
8         3424.25   6.11176   20.4353   333.087   22.4491   
8.1       3458.59   6.11176   20.641    332.881   22.4281   
8.2       3503.13   6.11176   20.8698   332.652   22.421    
8.3       3545.78   6.11176   21.0939   332.428   22.4216   
8.4       3593.48   6.11176   21.3209   332.201   22.4491   
8.5       3632.98   6.11176   21.5371   331.985   22.3688   
8.6       3673.8    6.11176   21.7543   331.768   22.3412   
8.7       3721.85   6.11176   21.9811   331.541   22.4156   
8.8       3766.06   6.11176   22.1842   331.338   22.4315   
8.9       3797.46   6.11176   22.3881   331.134   22.4749   
9         3841.23   6.11176   22.6025   330.92    22.4606   
9.1       3886.54   6.11176   22.8179   330.704   22.4406   
9.2       3923.5    6.11176   23.0314   330.491   22.4022   
9.3       3967.94   6.11176   23.2527   330.269   22.4617   
9.4       4013.72   6.11176   23.4768   330.045   22.4705   
9.5       4057.38   6.11176   23.6906   329.832   22.454    
9.6       4099.77   6.11176   23.8979   329.624   22.4063   
9.7       4135.59   6.11176   24.1104   329.412   22.4514   
9.8       4184.42   6.11176   24.3239   329.198   22.4512   
9.9       4228.6    6.11176   24.5214   329.001   22.4648   
10        4260.49   6.11176   24.7126   328.81    22.4658   
10.1      4300.17   6.11176   24.9253   328.597   22.4587   
10.2      4337.08   6.11176   25.1394   328.383   22.4629   
10.3      4383.25   6.11176   25.3511   328.171   22.4519   
10.4      4424.63   6.11176   25.5488   327.973   22.4566   
10.5      4461.95   6.11176   25.7468   327.775   22.4529   
10.6      4499.91   6.11176   25.9463   327.576   22.4492   
10.7      4543.02   6.11176   26.152    327.37    22.4289   
10.8      4585.02   6.11176   26.354    327.168   22.3912   
10.9      4626.37   6.11176   26.5602   326.962   22.4705   
11        4665.62   6.11176   26.7646   326.758   22.4684   
11.1      4706.85   6.11176   26.9744   326.548   22.3905   
11.2      4746.63   6.11176   27.1744   326.348   22.3529   
11.3      4787.69   6.11176   27.381    326.141   22.4338   
11.4      4827.23   6.11176   27.5835   325.939   22.4395   
11.5      4866.03   6.11176   27.7832   325.739   22.4135   
11.6      4911.6    6.11176   27.9921   325.53    22.4362   
11.7      4941.46   6.11176   28.1954   325.327   22.4567   
11.8      4989.92   6.11176   28.4175   325.105   22.4102   
11.9      5028.84   6.11176   28.6224   324.9     22.4412   
12        5071.17   6.11176   28.8352   324.687   22.4014   
12.1      5117.33   6.11176   29.047    324.475   22.4219   
12.2      5158.24   6.11176   29.2457   324.277   22.3708   
12.3      5197.3    6.11176   29.4371   324.085   22.4129   
12.4      5229.52   6.11176   29.6381   323.884   22.4389   
12.5      5273.23   6.11176   29.8451   323.677   22.3594   
12.6      5314.12   6.11176   30.0546   323.468   22.4225   
12.7      5360.61   6.11176   30.2574   323.265   22.3788   
12.8      5397.01   6.11176   30.4557   323.067   22.4318   
12.9      5432.06   6.11176   30.6574   322.865   22.4604   
13        5471.34   6.11176   30.8678   322.654   22.4236   
13.1      5514.52   6.11176   31.0834   322.439   22.4771   
13.2      5556.2    6.11176   31.2898   322.232   22.4502   
13.3      5598.72   6.11176   31.5113   322.011   22.3876   
13.4      5642.49   6.11176   31.7262   321.796   22.4621   
13.5      5679.85   6.11176   31.9311   321.591   22.4178   
13.6      5721.33   6.11176   32.1498   321.372   22.3435   
13.7      5765.97   6.11176   32.3638   321.158   22.3714   
13.8      5806.26   6.11176   32.5683   320.954   22.3672   
13.9      5849.91   6.11176   32.7744   320.748   22.3671   
14        5892.95   6.11176   32.9808   320.541   22.4541   
14.1      5928.86   6.11176   33.1883   320.334   22.4378   
14.2      5967.88   6.11176   33.4031   320.119   22.3673   
14.3      6010.46   6.11176   33.6241   319.898   22.366    
14.4      6054.83   6.11176   33.8388   319.683   22.4116   
14.5      6100.39   6.11176   34.0595   319.463   22.4181   
14.6      6133.67   6.11176   34.2713   319.251   22.3967   
14.7      6179.01   6.11176   34.4895   319.033   22.3763   
14.8      6221.13   6.11176   34.7063   318.816   22.3089   
14.9      6267.66   6.11176   34.923    318.599   22.3629   
15        6308.52   6.11176   35.1346   318.388   22.4342   
15.1      6346.48   6.11176   35.3379   318.184   22.46     
15.2      6384.39   6.11176   35.5493   317.973   22.4338   
15.3      6425.8    6.11176   35.7636   317.759   22.3971   
15.4      6471.06   6.11176   35.9735   317.549   22.4273   
15.5      6512.46   6.11176   36.1846   317.338   22.3612   
15.6      6556.83   6.11176   36.3891   317.133   22.4495   
15.7      6593.36   6.11176   36.5975   316.925   22.461    
15.8      6638.66   6.11176   36.8047   316.717   22.4217   
15.9      6676.51   6.11176   37.0013   316.521   22.4082   
16        6722.41   6.11176   37.2094   316.313   22.3888   
16.1      6757.78   6.11176   37.4118   316.11    22.4299   
16.2      6799.36   6.11176   37.6187   315.903   22.4282   
16.3      6851.38   6.11176   37.8235   315.699   22.3781   
16.4      6889.65   6.11176   38.012    315.51    22.4371   
16.5      6929.69   6.11176   38.2106   315.312   22.3688   
16.6      6972.34   6.11176   38.4009   315.121   22.379    
16.7      7014.58   6.11176   38.5927   314.93    22.4597   
16.8      7057.02   6.11176   38.7773   314.745   22.3834   
16.9      7104.46   6.11176   38.9623   314.56    22.3511   
17        7141.32   6.11176   39.1402   314.382   22.3696   
17.1      7187.45   6.11176   39.3163   314.206   22.4497   
17.2      7226.75   6.11176   39.4946   314.028   22.4659   
17.3      7266.98   6.11176   39.677    313.845   22.4057   
17.4      7309.03   6.11176   39.8638   313.658   22.3422   
17.5      7354.91   6.11176   40.0504   313.472   22.3579   
17.6      7398.75   6.11176   40.2327   313.289   22.4366   
17.7      7441.49   6.11176   40.4053   313.117   22.4485   
17.8      7484.04   6.11176   40.5804   312.942   22.4305   
17.9      7517.57   6.11176   40.7532   312.769   22.397    
18        7569.59   6.11176   40.9435   312.579   22.3811   
18.1      7614.94   6.11176   41.112    312.41    22.4614   
18.2      7645.58   6.11176   41.2748   312.247   22.3913   
18.3      7678.35   6.11176   41.4369   312.085   22.4385   
18.4      7719.83   6.11176   41.6002   311.922   22.4109   
18.5      7763.62   6.11176   41.7593   311.763   22.4445   
18.6      7800.31   6.11176   41.9115   311.611   22.3654   
18.7      7840.95   6.11176   42.074    311.448   22.4257   
18.8      7880.83   6.11176   42.2359   311.286   22.3559   
18.9      7917.01   6.11176   42.4022   311.12    22.3714   
19        7967.16   6.11176   42.5709   310.951   22.4466   
19.1      8002.03   6.11176   42.7316   310.791   22.3953   
19.2      8043.23   6.11176   42.8915   310.631   22.4407   
19.3      8080.35   6.11176   43.0464   310.476   22.4308   
19.4      8116.19   6.11176   43.2075   310.315   22.3802   
19.5      8155.59   6.11176   43.3702   310.152   22.4095   
19.6      8201.3    6.11177   43.5377   309.985   22.4153   
19.7      8240.02   6.11176   43.6982   309.824   22.3416   
19.8      8274.05   6.11177   43.859    309.663   22.3621   
19.9      8325.69   6.11176   44.0258   309.496   22.3649   
20        8363.58   6.11177   44.177    309.345   22.3559   
20.1      8400.08   6.11176   44.3367   309.186   22.3531   
20.2      8446.75   6.11178   44.5048   309.017   22.4193   
20.3      8484.72   6.11189   44.6685   308.854   22.4021   
20.4      8529.59   6.11188   44.8368   308.685   22.4206   
20.5      8574.9    6.11189   45.0027   308.519   22.4383   
20.6      8616.21   6.11188   45.1721   308.35    22.4433   
20.7      8666.93   6.11188   45.3298   308.192   22.3232   
20.8      8695.46   6.11188   45.4728   308.049   22.4046   
20.9      8737.55   6.11188   45.6386   307.884   22.4379   
21        8783.64   6.11188   45.7976   307.725   22.4021   
21.1      8825      6.11188   45.9555   307.567   22.4759   
21.2      8863.76   6.11188   46.1062   307.416   22.4592   
21.3      8905.93   6.11188   46.266    307.256   22.4564   
21.4      8944.97   6.11188   46.4271   307.095   22.3886   
21.5      8984.1    6.11188   46.5832   306.939   22.4607   
21.6      9029.48   6.11188   46.7347   306.787   22.355    
21.7      9069.4    6.11188   46.8881   306.634   22.3838   
21.8      9112.62   6.11188   47.0449   306.477   22.4402   
21.9      9149.51   6.11188   47.1931   306.329   22.4038   
22        9190.14   6.11188   47.3535   306.169   22.3583   
22.1      9237      6.11188   47.5064   306.016   22.4096   
22.2      9275.5    6.11188   47.6542   305.868   22.4009   
22.3      9311.46   6.11188   47.8077   305.714   22.3926   
22.4      9352.75   6.11188   47.9636   305.559   22.389    
22.5      9397.39   6.11188   48.1207   305.402   22.4084   
22.6      9440.39   6.11188   48.2741   305.248   22.4874   
22.7      9480.12   6.11188   48.4188   305.103   22.437    
22.8      9519.3    6.11188   48.571    304.951   22.41     
22.9      9564.58   6.11188   48.7236   304.799   22.3554   
23        9598.27   6.11188   48.8704   304.652   22.4486   
23.1      9635.08   6.11188   49.0259   304.496   22.452    
23.2      9678.32   6.11188   49.1862   304.336   22.4074   
23.3      9724.45   6.11188   49.3397   304.182   22.4707   
23.4      9764.03   6.11188   49.4856   304.037   22.4405   
23.5      9809.93   6.11188   49.6521   303.87    22.4376   
23.6      9852.35   6.11188   49.8092   303.713   22.4656   
23.7      9893.71   6.11188   49.9677   303.554   22.3815   
23.8      9942.29   6.11188   50.1234   303.399   22.3566   
23.9      9974.36   6.11188   50.2669   303.255   22.3288   
24        10012.2   6.11188   50.4238   303.098   22.4215   
24.1      10059.7   6.11188   50.5815   302.941   22.4527   
24.2      10095.5   6.11188   50.7303   302.792   22.4404   
24.3      10140.4   6.11188   50.8895   302.633   22.4082   
24.4      10185.7   6.11188   51.0462   302.476   22.3798   
24.5      10223.8   6.11188   51.199    302.323   22.425    
24.6      10274.8   6.11188   51.3566   302.166   22.4686   
24.7      10314     6.11188   51.5042   302.018   22.4629   
24.8      10355.5   6.11188   51.6485   301.874   22.4676   
24.9      10393.5   6.11188   51.7828   301.739   22.419    
25        10428.2   6.11188   51.9285   301.594   22.3874   
25.1      10468.6   6.11188   52.0803   301.442   22.439    
25.2      10514.4   6.11188   52.2329   301.289   22.4354   
25.3      10549.8   6.11188   52.3828   301.139   22.4782   
25.4      10590.9   6.11188   52.5334   300.989   22.4407   
25.5      10636.5   6.11188   52.6852   300.837   22.4471   
25.6      10678.4   6.11188   52.8308   300.691   22.3838   
25.7      10721.9   6.11188   52.9738   300.548   22.4312   
25.8      10758.4   6.11188   53.1165   300.406   22.4002   
25.9      10796.5   6.11188   53.266    300.256   22.3877   
26        10837.9   6.11188   53.4128   300.109   22.4078   
26.1      10878.7   6.11188   53.5589   299.963   22.4713   
26.2      10915     6.11188   53.7089   299.813   22.3883   
26.3      10961     6.11188   53.8605   299.662   22.438    
26.4      11000.9   6.11188   54.0068   299.515   22.4304   
26.5      11043.1   6.11188   54.1471   299.375   22.4396   
26.6      11077.1   6.11188   54.283    299.239   22.4383   
26.7      11117.1   6.11188   54.4285   299.094   22.3519   
26.8      11156.4   6.11188   54.5739   298.948   22.4301   
26.9      11196.7   6.11188   54.7262   298.796   22.3663   
27        11245.4   6.11188   54.8749   298.647   22.4049   
27.1      11276.3   6.11188   55.0085   298.514   22.3712   
27.2      11320.2   6.11188   55.1588   298.363   22.3348   
27.3      11359.8   6.11188   55.299    298.223   22.4164   
27.4      11396.8   6.11188   55.4497   298.072   22.4209   
27.5      11445.4   6.11188   55.6036   297.919   22.3683   
27.6      11483.6   6.11188   55.7507   297.771   22.4302   
27.7      11526.1   6.11188   55.9036   297.619   22.3696   
27.8      11569.5   6.11188   56.0471   297.475   22.3891   
27.9      11610.4   6.11188   56.1928   297.329   22.3591   
28        11642.6   6.11188   56.3421   297.18    22.4108   
28.1      11692.6   6.11188   56.4894   297.033   22.422    
28.2      11730.3   6.11188   56.6365   296.886   22.4277   
28.3      11775.6   6.11188   56.782    296.74    22.4419   
28.4      11813.6   6.11188   56.9209   296.601   22.4091   
28.5      11851     6.11188   57.0688   296.453   22.3849   
28.6      11893.5   6.11188   57.2167   296.305   22.3899   
28.7      11939     6.11188   57.3602   296.162   22.3894   
28.8      11967.3   6.11188   57.4928   296.029   22.399    
28.9      12017.4   6.11188   57.6426   295.88    22.3226   
29        12054.6   6.11188   57.7829   295.739   22.3823   
29.1      12092.4   6.11188   57.9251   295.597   22.3806   
29.2      12136.2   6.11188   58.0724   295.45    22.3639   
29.3      12175     6.11188   58.215    295.307   22.4152   
29.4      12221.9   6.11188   58.3606   295.162   22.3889   
29.5      12257.2   6.11188   58.5039   295.018   22.4576   
29.6      12301.1   6.11188   58.6542   294.868   22.3599   
29.7      12347.7   6.11188   58.8051   294.717   22.3949   
29.8      12381.3   6.11188   58.9485   294.574   22.4393   
29.9      12423.3   6.11188   59.0916   294.431   22.4073   
30        12463.2   6.11188   59.2347   294.287   22.4719   
30.1      12508     6.11188   59.3831   294.139   22.3602   
30.2      12546.6   6.11188   59.5235   293.999   22.3886   
30.3      12585.5   6.11188   59.6665   293.856   22.3997   
30.4      12630.9   6.11188   59.811    293.711   22.3581   
30.5      12672.2   6.11188   59.9504   293.572   22.346    
30.6      12707.7   6.11188   60.0958   293.426   22.3453   
30.7      12754.1   6.11188   60.2408   293.281   22.3735   
30.8      12792     6.11188   60.3821   293.14    22.3268   
30.9      12834.5   6.11188   60.5298   292.992   22.3582   
31        12877.5   6.11188   60.6683   292.854   22.4194   
31.1      12916.2   6.11188   60.8046   292.718   22.4548   
31.2      12952.2   6.11188   60.9401   292.582   22.4244   
31.3      12994.7   6.11188   61.0854   292.437   22.4091   
31.4      13033.1   6.11188   61.2239   292.298   22.3985   
31.5      13071.6   6.11188   61.3597   292.163   22.4748   
31.6      13112.9   6.11188   61.5      292.022   22.3739   
31.7      13153.6   6.11188   61.6343   291.888   22.3621   
31.8      13191     6.11188   61.7728   291.749   22.4357   
31.9      13235.2   6.11188   61.9081   291.614   22.3577   
32        13275.1   6.11188   62.0424   291.48    22.4784   
32.1      13313.3   6.11188   62.1778   291.344   22.4102   
32.2      13352.2   6.11188   62.317    291.205   22.3562   
32.3      13393.7   6.11188   62.3934   291.129   22.4437   
32.4      13401.6   6.11188   62.3902   291.132   22.4127   
32.5      13384.2   6.11188   62.3219   291.2     22.4174   
32.6      13347.4   6.11188   62.2306   291.292   22.3691   
32.7      13317.3   6.11188   62.159    291.363   22.3783   
32.8      13287.9   6.11188   62.0764   291.446   22.3431   
32.9      13250     6.11188   62.0021   291.52    22.4161   
33        13229.8   6.11188   61.9132   291.609   22.4218   
33.1      13191.1   6.11188   61.7987   291.723   22.4384   
33.2      13156.5   6.11188   61.6877   291.834   22.4038   
33.3      13107.9   6.11188   61.5678   291.954   22.3943   
33.4      13068.6   6.11188   61.4603   292.062   22.3637   
33.5      13032.1   6.11188   61.3478   292.174   22.3655   
33.6      12988.3   6.11188   61.2238   292.298   22.4099   
33.7      12958.5   6.11188   61.1075   292.415   22.427    
33.8      12909.5   6.11188   60.9874   292.535   22.4031   
33.9      12869.3   6.11188   60.8691   292.653   22.3761   
34        12828.7   6.11188   60.7516   292.771   22.4345   
34.1      12792.8   6.11188   60.637    292.885   22.4185   
34.2      12750.7   6.11188   60.5108   293.011   22.4413   
34.3      12708.7   6.11188   60.3832   293.139   22.3901   
34.4      12670.9   6.11188   60.2552   293.267   22.3691   
34.5      12627.1   6.11188   60.1213   293.401   22.3694   
34.6      12584     6.11188   59.9912   293.531   22.362    
34.7      12540.3   6.11188   59.8651   293.657   22.4065   
34.8      12502.3   6.11188   59.7398   293.782   22.3616   
34.9      12461.1   6.11188   59.6169   293.905   22.4098   
35        12414.9   6.11188   59.4904   294.032   22.361    
35.1      12381.4   6.11188   59.374    294.148   22.3812   
35.2      12342.1   6.11188   59.2473   294.275   22.4232   
35.3      12302.2   6.11188   59.1189   294.403   22.3649   
35.4      12265.7   6.11188   58.987    294.535   22.3551   
35.5      12220.4   6.11188   58.8422   294.68    22.4124   
35.6      12175.3   6.11188   58.7096   294.813   22.4396   
35.7      12128.3   6.11188   58.5735   294.949   22.4244   
35.8      12086     6.11188   58.445    295.077   22.4524   
35.9      12049.1   6.11188   58.3244   295.198   22.3892   
36        12014.9   6.11188   58.1919   295.33    22.4418   
36.1      11975.6   6.11188   58.0574   295.465   22.3688   
36.2      11930     6.11188   57.921    295.601   22.4097   
36.3      11885.3   6.11188   57.7763   295.746   22.4331   
36.4      11846.3   6.11188   57.6347   295.887   22.4066   
36.5      11800.9   6.11188   57.491    296.031   22.3945   
36.6      11754.6   6.11188   57.3513   296.171   22.338    
36.7      11719.5   6.11188   57.222    296.3     22.3823   
36.8      11678.2   6.11188   57.0927   296.43    22.44     
36.9      11636.1   6.11188   56.9571   296.565   22.4328   
37        11601.7   6.11188   56.8191   296.703   22.376    
37.1      11549.2   6.11188   56.6819   296.84    22.3672   
37.2      11515.4   6.11188   56.5506   296.972   22.4548   
37.3      11472.4   6.11188   56.4174   297.105   22.4435   
37.4      11429.1   6.11188   56.2779   297.244   22.4668   
37.5      11395.9   6.11188   56.1363   297.386   22.4192   
37.6      11348.9   6.11188   55.9927   297.529   22.3276   
37.7      11307.4   6.11188   55.8584   297.664   22.4079   
37.8      11270.7   6.11188   55.72     297.802   22.4611   
37.9      11228.4   6.11188   55.5786   297.944   22.4466   
38        11186.2   6.11188   55.4422   298.08    22.4039   
38.1      11147.1   6.11188   55.3057   298.217   22.4189   
38.2      11106.4   6.11188   55.1671   298.355   22.3447   
38.3      11069.2   6.11188   55.0329   298.489   22.4257   
38.4      11036.4   6.11188   54.899    298.623   22.4078   
38.5      10985.5   6.11188   54.7602   298.762   22.46     
38.6      10944.2   6.11188   54.6303   298.892   22.4143   
38.7      10911.2   6.11188   54.4984   299.024   22.3725   
38.8      10877.5   6.11188   54.361    299.161   22.4175   
38.9      10828.5   6.11188   54.2149   299.307   22.4099   
39        10788.9   6.11188   54.0773   299.445   22.4538   
39.1      10749.6   6.11188   53.9394   299.583   22.4504   
39.2      10706     6.11188   53.8057   299.716   22.3904   
39.3      10673.8   6.11188   53.6701   299.852   22.3928   
39.4      10625.2   6.11188   53.5265   299.996   22.368    
39.5      10593.9   6.11188   53.396    300.126   22.4319   
39.6      10552.1   6.11188   53.251    300.271   22.4054   
39.7      10512.2   6.11188   53.1071   300.415   22.4206   
39.8      10466.5   6.11188   52.9691   300.553   22.3982   
39.9      10428.3   6.11188   52.8312   300.691   22.4635   
40        10389.8   6.11188   52.6933   300.829   22.3929   
40.1      10345.1   6.11188   52.5512   300.971   22.3951   
40.2      10309.7   6.11188   52.4129   301.109   22.4062   
40.3      10266.4   6.11188   52.2733   301.249   22.4095   
40.4      10228.8   6.11188   52.1265   301.396   22.4478   
40.5      10186.4   6.11188   51.9699   301.552   22.4412   
40.6      10136     6.11188   51.8101   301.712   22.4657   
40.7      10097.5   6.11188   51.6667   301.855   22.45     
40.8      10054.6   6.11188   51.5149   302.007   22.3958   
40.9      10013.4   6.11188   51.3646   302.158   22.3818   
41        9970.24   6.11188   51.2202   302.302   22.4041   
41.1      9936.75   6.11188   51.0752   302.447   22.3881   
41.2      9884.95   6.11188   50.928    302.594   22.3656   
41.3      9850.19   6.11188   50.7875   302.735   22.4744   
41.4      9810.04   6.11188   50.6419   302.88    22.4183   
41.5      9765.96   6.11188   50.4978   303.024   22.3893   
41.6      9731.5    6.11188   50.3552   303.167   22.4272   
41.7      9688.12   6.11188   50.2074   303.315   22.4235   
41.8      9648.48   6.11188   50.0614   303.461   22.4102   
41.9      9611.25   6.11188   49.9196   303.603   22.3269   
42        9570.44   6.11188   49.7723   303.75    22.3711   
42.1      9526.83   6.11188   49.6207   303.901   22.4333   
42.2      9483.32   6.11188   49.4773   304.045   22.396    
42.3      9447.55   6.11188   49.3323   304.19    22.422    
42.4      9406.08   6.11188   49.1842   304.338   22.3367   
42.5      9366.06   6.11188   49.0302   304.492   22.3797   
42.6      9319.32   6.11188   48.873    304.649   22.3916   
42.7      9272.45   6.11188   48.7252   304.797   22.3595   
42.8      9239.05   6.11188   48.5776   304.945   22.4007   
42.9      9199.98   6.11188   48.4293   305.093   22.4465   
43        9154.03   6.11188   48.2811   305.241   22.3784   
43.1      9116.59   6.11188   48.1361   305.386   22.4077   
43.2      9079.06   6.11188   47.9862   305.536   22.3585   
43.3      9035.63   6.11188   47.8352   305.687   22.4069   
43.4      9002.32   6.11188   47.6883   305.834   22.4339   
43.5      8954.33   6.11188   47.5317   305.99    22.4388   
43.6      8914.56   6.11188   47.3857   306.136   22.4608   
43.7      8879.36   6.11188   47.246    306.276   22.3678   
43.8      8839.72   6.11188   47.0945   306.428   22.4571   
43.9      8805.67   6.11188   46.9422   306.58    22.4391   
44        8757.89   6.11188   46.786    306.736   22.3831   
44.1      8714.44   6.11188   46.6348   306.887   22.3662   
44.2      8670.9    6.11188   46.4905   307.032   22.3616   
44.3      8638.93   6.11188   46.3453   307.177   22.4282   
44.4      8606.66   6.11188   46.1933   307.329   22.4501   
44.5      8560.52   6.11188   46.0269   307.495   22.3811   
44.6      8511.41   6.11188   45.8657   307.657   22.4239   
44.7      8473.15   6.11188   45.714    307.808   22.4009   
44.8      8437.19   6.11188   45.561    307.961   22.4214   
44.9      8399.75   6.11188   45.4059   308.116   22.4389   
45        8351.34   6.11188   45.2439   308.278   22.4029   
45.1      8309.32   6.11188   45.0908   308.431   22.4387   
45.2      8271.63   6.11188   44.9467   308.575   22.4364   
45.3      8237.52   6.11188   44.8016   308.721   22.326    
45.4      8198.55   6.11188   44.6415   308.881   22.4613   
45.5      8152.6    6.11188   44.48     309.042   22.4388   
45.6      8120.37   6.11188   44.3244   309.198   22.3526   
45.7      8074.31   6.11188   44.1644   309.358   22.3677   
45.8      8037.19   6.11188   44.0126   309.51    22.4306   
45.9      7996.93   6.11188   43.8527   309.669   22.4448   
46        7957.39   6.11188   43.6933   309.829   22.4614   
46.1      7920.99   6.11188   43.5382   309.984   22.4173   
46.2      7880.55   6.11188   43.3743   310.148   22.4355   
46.3      7843.31   6.11188   43.2113   310.311   22.4367   
46.4      7799.43   6.11188   43.0463   310.476   22.4549   
46.5      7759.76   6.11188   42.8789   310.643   22.3712   
46.6      7713.81   6.11188   42.7097   310.813   22.4041   
46.7      7672.9    6.11188   42.5379   310.984   22.4169   
46.8      7636.46   6.11188   42.379    311.143   22.3701   
46.9      7593.07   6.11188   42.2103   311.312   22.3821   
47        7555.06   6.11188   42.0486   311.474   22.4038   
47.1      7511.58   6.11188   41.8866   311.636   22.4174   
47.2      7479.88   6.11188   41.7227   311.799   22.3717   
47.3      7443.12   6.11188   41.5503   311.972   22.353    
47.4      7393.7    6.11188   41.3725   312.15    22.3389   
47.5      7350.59   6.11188   41.2068   312.315   22.3682   
47.6      7314.51   6.11188   41.0363   312.486   22.4253   
47.7      7275      6.11188   40.8579   312.664   22.4063   
47.8      7231.12   6.11188   40.6854   312.837   22.3677   
47.9      7189.55   6.11188   40.5155   313.007   22.3863   
48        7149.64   6.11188   40.3441   313.178   22.3678   
48.1      7108.72   6.11188   40.1762   313.346   22.3269   
48.2      7073.28   6.11188   39.9993   313.523   22.379    
48.3      7028.42   6.11188   39.825    313.697   22.4208   
48.4      6993.48   6.11188   39.6562   313.866   22.4785   
48.5      6949.44   6.11188   39.488    314.034   22.4392   
48.6      6915.27   6.11188   39.3257   314.196   22.3868   
48.7      6874.84   6.11188   39.15     314.372   22.4339   
48.8      6840.18   6.11188   38.9767   314.545   22.4299   
48.9      6803.83   6.11188   38.7961   314.726   22.4725   
49        6765.67   6.11188   38.6134   314.909   22.3847   
49.1      6725.65   6.11188   38.4275   315.095   22.4451   
49.2      6685.79   6.11188   38.2352   315.287   22.427    
49.3      6645.72   6.11188   38.0471   315.475   22.4703   
49.4      6612.41   6.11188   37.8613   315.661   22.4347   
49.5      6569.15   6.11188   37.6721   315.85    22.3533   
49.6      6533.12   6.11188   37.4868   316.035   22.4204   
49.7      6493.47   6.11188   37.2999   316.222   22.4229   
49.8      6456.95   6.11188   37.1049   316.417   22.4248   
49.9      6418.48   6.11188   36.9084   316.614   22.4229   
50        6381.78   6.11188   36.707    316.815   22.4636   
50.1      6337.7    6.11188   36.4986   317.024   22.3836   
50.2      6296.13   6.11188   36.3066   317.216   22.3417   
50.3      6256.48   6.11188   36.1105   317.412   22.3981   
50.4      6222.18   6.11188   35.9089   317.613   22.4607   
50.5      6189.4    6.11188   35.7146   317.808   22.4688   
50.6      6144.65   6.11188   35.5152   318.007   22.3869   
50.7      6103.75   6.11188   35.3291   318.193   22.4311   
50.8      6068.56   6.11188   35.1399   318.382   22.4731   
50.9      6030.17   6.11188   34.948    318.574   22.4379   
51        5996.1    6.11188   34.7538   318.768   22.4196   
51.1      5952.96   6.11188   34.5481   318.974   22.4027   
51.2      5909.56   6.11188   34.3492   319.173   22.4013   
51.3      5875.99   6.11188   34.1438   319.378   22.4557   
51.4      5831.32   6.11188   33.9405   319.582   22.4554   
51.5      5794.99   6.11188   33.7391   319.783   22.441    
51.6      5749.86   6.11188   33.5213   320.001   22.4269   
51.7      5712.52   6.11188   33.3128   320.209   22.4201   
51.8      5672.29   6.11188   33.1047   320.417   22.3834   
51.9      5618.05   6.11188   32.8923   320.63    22.4114   
52        5586.91   6.11188   32.6946   320.828   22.4542   
52.1      5547.19   6.11188   32.4861   321.036   22.4521   
52.2      5505.51   6.11188   32.2789   321.243   22.4503   
52.3      5464.67   6.11188   32.0744   321.448   22.3747   
52.4      5426.93   6.11188   31.8758   321.646   22.3884   
52.5      5392.8    6.11188   31.6713   321.851   22.3967   
52.6      5343.42   6.11188   31.468    322.054   22.3952   
52.7      5308.54   6.11188   31.2749   322.247   22.3923   
52.8      5269.15   6.11188   31.0719   322.45    22.4206   
52.9      5225.84   6.11188   30.8719   322.65    22.4519   
53        5187.55   6.11188   30.6696   322.853   22.3318   
53.1      5150.54   6.11188   30.4651   323.057   22.3713   
53.2      5105.19   6.11188   30.2602   323.262   22.47     
53.3      5068.17   6.11188   30.0634   323.459   22.4477   
53.4      5023.62   6.11188   29.8619   323.66    22.4428   
53.5      4985.63   6.11188   29.6601   323.862   22.405    
53.6      4947.31   6.11188   29.4493   324.073   22.4431   
53.7      4903.49   6.11188   29.2294   324.293   22.4387   
53.8      4863.38   6.11188   29.0179   324.504   22.443    
53.9      4813.35   6.11188   28.8036   324.719   22.4316   
54        4768.76   6.11188   28.5987   324.923   22.4244   
54.1      4732.7    6.11188   28.4049   325.117   22.4767   
54.2      4700.38   6.11188   28.2011   325.321   22.4472   
54.3      4657.69   6.11188   27.9869   325.535   22.468    
54.4      4618.21   6.11188   27.7781   325.744   22.4248   
54.5      4571.07   6.11188   27.5658   325.956   22.4412   
54.6      4528.95   6.11188   27.3566   326.166   22.4083   
54.7      4485.6    6.11188   27.144    326.378   22.4492   
54.8      4445.23   6.11189   26.937    326.585   22.3959   
54.9      4407.24   6.11188   26.7299   326.792   22.4292   
55        4358.88   6.11189   26.5176   327.005   22.4646   
55.1      4321.92   6.11188   26.3169   327.205   22.462    
55.2      4282.65   6.11189   26.1099   327.412   22.421    
55.3      4240.04   6.11186   25.9073   327.615   22.4387   
55.4      4203.95   6.11177   25.7033   327.819   22.4779   
55.5      4160      6.11177   25.4898   328.032   22.4131   
55.6      4114.2    6.11176   25.2838   328.238   22.4071   
55.7      4076.5    6.11177   25.0741   328.448   22.4374   
55.8      4027.5    6.11176   24.8599   328.662   22.3548   
55.9      3994.68   6.11177   24.6579   328.864   22.429    
56        3955.75   6.11176   24.4482   329.074   22.4146   
56.1      3907.02   6.11176   24.2313   329.291   22.4055   
56.2      3864.01   6.11176   24.033    329.489   22.3363   
56.3      3828.15   6.11176   23.8443   329.678   22.4011   
56.4      3796.25   6.11176   23.6402   329.882   22.4408   
56.5      3746.2    6.11176   23.425    330.097   22.3566   
56.6      3712.31   6.11176   23.2222   330.3     22.3645   
56.7      3671.3    6.11176   23.0143   330.508   22.4467   
56.8      3626.45   6.11176   22.8114   330.711   22.3971   
56.9      3591.49   6.11176   22.6117   330.91    22.3843   
57        3556.02   6.11176   22.4011   331.121   22.4235   
57.1      3517.31   6.11176   22.1928   331.329   22.3817   
57.2      3471.2    6.11176   21.9844   331.538   22.4017   
57.3      3433.52   6.11176   21.7769   331.745   22.3945   
57.4      3395.3    6.11176   21.5684   331.954   22.382    
57.5      3356.34   6.11176   21.3627   332.159   22.336    
57.6      3316.87   6.11176   21.1515   332.371   22.3985   
57.7      3275.79   6.11176   20.9347   332.587   22.412    
57.8      3233.93   6.11176   20.7234   332.799   22.4203   
57.9      3189.62   6.11176   20.5068   333.015   22.3809   
58        3151.37   6.11176   20.3016   333.221   22.4308   
58.1      3108.09   6.11176   20.0912   333.431   22.4545   
58.2      3068.57   6.11176   19.8808   333.641   22.3827   
58.3      3034.94   6.11176   19.6766   333.846   22.4327   
58.4      2988.08   6.11176   19.4579   334.064   22.4124   
58.5      2950.63   6.11176   19.2478   334.274   22.4048   
58.6      2905.07   6.11176   19.036    334.486   22.3638   
58.7      2860.83   6.11176   18.8319   334.69    22.4806   
58.8      2830.47   6.11176   18.6333   334.889   22.4493   
58.9      2788.4    6.11176   18.4203   335.102   22.4766   
59        2749.28   6.11176   18.2178   335.304   22.3898   
59.1      2705.76   6.11176   18.0021   335.52    22.3264   
59.2      2665.74   6.11176   17.7932   335.729   22.4137   
59.3      2627.35   6.11176   17.5844   335.938   22.3988   
59.4      2584.69   6.11176   17.3702   336.152   22.4401   
59.5      2540.66   6.11176   17.1682   336.354   22.4622   
59.6      2506.44   6.11176   16.9625   336.56    22.4465   
59.7      2466.27   6.11176   16.7428   336.779   22.4014   
59.8      2420.62   6.11176   16.5179   337.004   22.4491   
59.9      2377.61   6.11176   16.2976   337.225   22.3957   
60        2331.88   6.11176   16.0799   337.442   22.4278   
60.1      2292.89   6.11176   15.8681   337.654   22.3844   
60.2      2258.1    6.11176   15.6541   337.868   22.4344   
60.3      2221.06   6.11176   15.4381   338.084   22.428    
60.4      2180.92   6.11176   15.2128   338.309   22.3456   
60.5      2136.3    6.11176   14.9964   338.526   22.4313   
60.6      2095.47   6.11176   14.7809   338.741   22.4697   
60.7      2054.77   6.11176   14.5673   338.955   22.4083   
60.8      2020.1    6.11176   14.3469   339.175   22.3802   
60.9      1974.81   6.11176   14.1212   339.401   22.4217   
61        1938.6    6.11176   13.9091   339.613   22.4672   
61.1      1896.33   6.11176   13.6846   339.838   22.4564   
61.2      1861.07   6.11176   13.4631   340.059   22.4597   
61.3      1827.85   6.11176   13.241    340.281   22.3687   
61.4      1784.44   6.11176   13.0093   340.513   22.4389   
61.5      1741.51   6.11176   12.7779   340.744   22.4437   
61.6      1708.25   6.11176   12.5532   340.969   22.3921   
61.7      1671.24   6.11176   12.3143   341.208   22.4539   
61.8      1624.71   6.11176   12.0668   341.455   22.4054   
61.9      1584.41   6.11176   11.8324   341.69    22.472    
62        1536.07   6.11176   11.5981   341.924   22.4417   
62.1      1500.16   6.11176   11.3703   342.152   22.4446   
62.2      1460.19   6.11176   11.1402   342.382   22.469    
62.3      1420.97   6.11176   10.9025   342.62    22.4357   
62.4      1378.26   6.11176   10.6683   342.854   22.4325   
62.5      1334.36   6.11176   10.4391   343.083   22.4447   
62.6      1295.65   6.11176   10.2102   343.312   22.461    
62.7      1254.31   6.11176   9.97739   343.545   22.4514   
62.8      1215.26   6.11176   9.74345   343.779   22.4391   
62.9      1175.48   6.11176   9.51934   344.003   22.452    
63        1132.91   6.11176   9.28361   344.239   22.3972   
63.1      1093.62   6.11176   9.05517   344.467   22.4111   
63.2      1051.75   6.11176   8.82256   344.7     22.4032   
63.3      1015.29   6.11176   8.59028   344.932   22.4451   
63.4      973.09    6.11176   8.35852   345.164   22.461    
63.5      934.853   6.11176   8.12057   345.402   22.4552   
63.6      893.15    6.11176   7.88352   345.639   22.4666   
63.7      853.244   6.11176   7.65239   345.87    22.4582   
63.8      819.878   6.11176   7.40744   346.115   22.4153   
63.9      778.78    6.11176   7.15624   346.366   22.4169   
64        737.665   6.11176   6.90541   346.617   22.434    
64.1      707.24    6.11176   6.65146   346.871   22.4315   
64.2      679.802   6.11176   6.39128   347.131   22.4593   
64.3      637.784   6.11176   6.11627   347.406   22.4726   
64.4      600.662   6.11176   5.85081   347.671   22.429    
64.5      564.148   6.11176   5.57609   347.946   22.4306   
64.6      526.013   6.11176   5.30017   348.222   22.4401   
64.7      481.739   6.11176   5.02129   348.501   22.4585   
64.8      441.242   6.11176   4.76616   348.756   22.438    
64.9      407.715   6.11176   4.51272   349.009   22.4246   
65        370.001   6.11176   4.24591   349.276   22.4635   
65.1      332.016   6.11176   3.97622   349.546   22.4621   
65.2      293.494   6.11176   3.70815   349.814   22.4483   
65.3      257.002   6.11176   3.43144   350.091   22.463    
65.4      224.519   6.11176   3.14725   350.375   22.4428   
65.5      185.465   6.11176   2.84882   350.673   22.4261   
65.6      148.395   6.11176   2.54729   350.975   22.472    
65.7      124.788   6.11176   2.24136   351.281   22.4082   
65.8      107.557   6.11176   1.91784   351.604   22.4355   
65.9      78.3008   6.11176   1.56083   351.961   22.4659   
66        40.9036   6.11176   1.1925    352.33    22.4645   
66.1      11.6016   6.11176   0.818958  352.703   22.4656   
66.2      -19.7497  6.11176   0.430223  353.092   22.4685   

**END