**HEADER
RELEASE   Release of TYDEX-Format                 1.3
MEASID    Measurement ID                          cvert_2p7_13fz342_P00cam0_G07_dP00_110197_02
SUPPLIER  Data Supplier                           ika-fka / SteiReP / friederichs
DATE      Date                                    30/01/20
CLCKTIME  Clocktime                               14:07

**COMMENTS
------------------------------------
Bridgestone Potenza S001 MO 245/50R18 100W DOT4918
Vertical tyre stiffness on flat surface on transversal cleat at 0 deg camber
------------------------------------

**CONSTANTS
LOCATION  Location                      -         ika-fka, Aachen
MANUFACT  Tyre brand name               -         Bridgestone
IDENTITY  Commercial name               -         Potenza S001 MO
INFLPRES  Inflation Pressure            bar       2.7
TYREMASS  Tyre mass                     kg        11.95
OVALLDIA  Measured outside diameter     m         0.708
NOMDIAME  Nominal diameter of tyre      m         0.7022
NOMWIDTH  Nominal section width of tyre m         0.245
ASPRATIO  Nominal aspect ratio          -         0.5
SPEEDSYM  Speed symbol                  -         W
LOADIND   Load index                    -         100
TYROTIN   Tyre rot. inertia about YC    kgm2      1.233
RIMDIAME  Nominal rim diameter          m         0.4572
RIMWIDTH  Rim width                     m         0.2032
RIMROTIN  Rim rotational inertia        kgm2      0.386
TESTRIG   Test rig                      -         Stiffness Tyre Test Rig
CURVTRSF  Curvature of track surface    1/m       0
TRCKSURF  Surface of Track              -         Korund P80
TRCKCOND  Condition of Track Surface    -         dry
OBSTTYPE  Type of obstacle              -         G07
OBSTSURF  Surface of obstacle           -         Steel
CLEAT_H   Cleat height                  m         0.01
CLEAT_L   Cleat length                  m         0.02
CLT_BVED  Cleat bevel edge              m         0.002
CLT_ORI   Cleat orientation             deg       0
SLIPANGL  Slip angle                    deg       0
INCLANGL  Inclination angle             deg       0
LONGVEL   Longitudinal velocity         m/s       0

**MEASURCHANNELS
RUNTIME   Running Time                  s         1         0         0
FZW       Vertical Force                N         1         0         0
INCLANGL  Inclination angle             deg       1         0         0
TYREDEFW  Tyre deflection               mm        1         0         0
DSTGRWHC  Dist. ground - WHL. centre    mm        1         0         0
TRDTEMP   Tread Surface Temperature     deg C     1         0         0

**MEASURDATA
0         -1.19104  0.00231921 -0.0425628 354.813   22.5059   
0.1       3.09424   0.00231921 0.110576  354.66    22.4954   
0.2       0.642558  0.00231921 0.266269  354.504   22.4928   
0.3       0.993597  0.00231921 0.438037  354.332   22.5001   
0.4       2.03172   0.00231921 0.623776  354.146   22.4875   
0.5       12.7856   0.00231921 0.815092  353.955   22.4892   
0.6       31.4605   0.00231921 1.00119   353.769   22.5313   
0.7       57.6161   0.00231921 1.16696   353.603   22.517    
0.8       80.8807   0.00231921 1.30773   353.462   22.5061   
0.9       100.219   0.00231921 1.4371    353.333   22.4932   
1         124.29    0.00231921 1.5699    353.2     22.4869   
1.1       146.266   0.00231921 1.68837   353.082   22.4833   
1.2       162.878   0.00231921 1.8407    352.929   22.5      
1.3       193.115   0.00231921 2.04281   352.727   22.5133   
1.4       225.628   0.00231921 2.25287   352.517   22.4805   
1.5       266.222   0.00231921 2.48366   352.286   22.495    
1.6       307.078   0.00231921 2.71333   352.057   22.4911   
1.7       346.927   0.00231921 2.9337    351.836   22.4819   
1.8       392.353   0.00231921 3.1524    351.618   22.4619   
1.9       435.25    0.00231921 3.37043   351.4     22.4571   
2         476.056   0.00231921 3.58403   351.186   22.4609   
2.1       522.691   0.00231921 3.79472   350.975   22.4561   
2.2       564.337   0.00231921 3.99471   350.775   22.4671   
2.3       600.645   0.00231921 4.19029   350.58    22.46     
2.4       641.91    0.00231921 4.40424   350.366   22.4486   
2.5       683.227   0.00231921 4.61035   350.16    22.4614   
2.6       723.93    0.00231921 4.81043   349.96    22.4672   
2.7       761.917   0.00231921 5.01173   349.758   22.509    
2.8       800.479   0.00231921 5.21622   349.554   22.4793   
2.9       843.84    0.00231921 5.42882   349.341   22.5059   
3         892.478   0.00231921 5.63723   349.133   22.4809   
3.1       934.122   0.00231921 5.84369   348.926   22.5093   
3.2       976.765   0.00231921 6.05159   348.719   22.5306   
3.3       1021.41   0.00231921 6.25652   348.514   22.5035   
3.4       1063.9    0.00231921 6.45484   348.315   22.4797   
3.5       1107.73   0.00231921 6.64459   348.126   22.4962   
3.6       1146.51   0.00231921 6.83619   347.934   22.498    
3.7       1190.16   0.00231921 7.02865   347.741   22.4952   
3.8       1228.44   0.00231921 7.21269   347.557   22.4949   
3.9       1268.11   0.00231921 7.39258   347.378   22.4887   
4         1304.24   0.00231921 7.55891   347.211   22.4805   
4.1       1339.02   0.00231921 7.7304    347.04    22.5013   
4.2       1377.7    0.00231921 7.91267   346.857   22.4733   
4.3       1415.01   0.00231921 8.09546   346.675   22.5125   
4.4       1454.26   0.00231921 8.279     346.491   22.4989   
4.5       1497.29   0.00231921 8.46122   346.309   22.4985   
4.6       1535.88   0.00231921 8.6438    346.126   22.5052   
4.7       1580.04   0.00231921 8.82696   345.943   22.4753   
4.8       1619.8    0.00231921 9.0073    345.763   22.4948   
4.9       1655.72   0.00231921 9.19042   345.58    22.523    
5         1697.71   0.00231921 9.37192   345.398   22.5031   
5.1       1741.46   0.00231921 9.55573   345.214   22.5119   
5.2       1780.26   0.00231921 9.73443   345.036   22.4927   
5.3       1816.97   0.00231921 9.90893   344.861   22.5087   
5.4       1857.15   0.00231921 10.0947   344.675   22.5269   
5.5       1894.7    0.00231921 10.2814   344.489   22.5127   
5.6       1940      0.00231921 10.4664   344.304   22.492    
5.7       1976.78   0.00231921 10.6521   344.118   22.5029   
5.8       2020.62   0.00231921 10.8387   343.931   22.5115   
5.9       2060.63   0.00231921 11.0217   343.748   22.4991   
6         2105.55   0.00231921 11.2091   343.561   22.5191   
6.1       2144.29   0.00231921 11.3969   343.373   22.5433   
6.2       2183.56   0.00231921 11.5823   343.188   22.4823   
6.3       2223.83   0.00231921 11.7678   343.002   22.5012   
6.4       2265.52   0.00231921 11.9526   342.818   22.5302   
6.5       2309.22   0.00231921 12.1396   342.631   22.5141   
6.6       2351.32   0.00231921 12.331    342.439   22.499    
6.7       2391.91   0.00231921 12.5135   342.257   22.4786   
6.8       2425.23   0.00231921 12.6921   342.078   22.5117   
6.9       2466.74   0.00231921 12.8733   341.897   22.5113   
7         2509.06   0.00231921 13.0454   341.725   22.4992   
7.1       2542.62   0.00231921 13.2079   341.562   22.4921   
7.2       2582.12   0.00231921 13.3801   341.39    22.5099   
7.3       2621.18   0.00231921 13.5586   341.212   22.481    
7.4       2658.58   0.00231921 13.7344   341.036   22.5058   
7.5       2696.42   0.00231921 13.9163   340.854   22.5008   
7.6       2737.31   0.00231921 14.0984   340.672   22.503    
7.7       2775.85   0.00231921 14.2774   340.493   22.4752   
7.8       2815.12   0.00231921 14.4628   340.307   22.512    
7.9       2858      0.00231921 14.6449   340.125   22.5053   
8         2896.76   0.00231921 14.8276   339.943   22.5082   
8.1       2939.91   0.00231921 15.0204   339.75    22.5131   
8.2       2981.99   0.00231921 15.2104   339.56    22.5091   
8.3       3021.67   0.00231921 15.3986   339.372   22.5099   
8.4       3059.78   0.00231921 15.5807   339.189   22.52     
8.5       3100.07   0.00231921 15.7721   338.998   22.4988   
8.6       3144.62   0.00231921 15.9531   338.817   22.4963   
8.7       3179.4    0.00231921 16.1328   338.637   22.521    
8.8       3223      0.00231921 16.3216   338.448   22.5002   
8.9       3265.03   0.00231921 16.506    338.264   22.4959   
9         3303.91   0.00231921 16.6907   338.079   22.5192   
9.1       3343.63   0.00231921 16.871    337.899   22.5233   
9.2       3381.5    0.00231921 17.0566   337.713   22.527    
9.3       3428.18   0.00231921 17.249    337.521   22.5061   
9.4       3470.11   0.00231921 17.4291   337.341   22.4892   
9.5       3507.05   0.00231921 17.6082   337.162   22.4838   
9.6       3544.68   0.00231921 17.7951   336.975   22.4998   
9.7       3585.95   0.00231921 17.9832   336.787   22.5067   
9.8       3631.7    0.00231921 18.1688   336.601   22.4881   
9.9       3664.07   0.00231921 18.3477   336.422   22.5056   
10        3705.83   0.00231921 18.5382   336.232   22.5294   
10.1      3749.76   0.00231921 18.7286   336.041   22.5044   
10.2      3793.24   0.00231921 18.917    335.853   22.4875   
10.3      3835.34   0.00231921 19.0979   335.672   22.518    
10.4      3871.36   0.00231921 19.28     335.49    22.5103   
10.5      3912.26   0.00231921 19.4674   335.303   22.5137   
10.6      3952.6    0.00231921 19.6535   335.117   22.5052   
10.7      3991.27   0.00231921 19.836    334.934   22.4952   
10.8      4030.61   0.00231921 20.0206   334.75    22.4716   
10.9      4070.84   0.00231921 20.2099   334.56    22.5111   
11        4112.14   0.00231921 20.3925   334.378   22.5094   
11.1      4146.98   0.00231921 20.5772   334.193   22.4934   
11.2      4191.75   0.00231921 20.7703   334       22.5151   
11.3      4234.18   0.00231921 20.9552   333.815   22.5182   
11.4      4276.68   0.00231921 21.1391   333.631   22.5049   
11.5      4314.6    0.00231921 21.3229   333.447   22.5222   
11.6      4352.73   0.00231921 21.5015   333.269   22.5304   
11.7      4391.2    0.00231921 21.6887   333.081   22.5237   
11.8      4431.46   0.00231912 21.875    332.895   22.5118   
11.9      4471.8    0.0023193 22.0658   332.704   22.5196   
12        4515.39   0.00231896 22.259    332.511   22.4946   
12.1      4557.28   0.00231954 22.4396   332.331   22.5102   
12.2      4598.35   0.0023186 22.6153   332.155   22.5042   
12.3      4629.61   0.00232007 22.7945   331.976   22.5015   
12.4      4674.48   0.00231779 22.986    331.784   22.514    
12.5      4712.4    0.0023215 23.1696   331.601   22.5178   
12.6      4751.29   0.0023145 23.3604   331.41    22.5017   
12.7      4792.84   0.00233864 23.5531   331.217   22.4805   
12.8      4834.5    0.00243337 23.7375   331.033   22.5243   
12.9      4873.37   0.00243426 23.9298   330.84    22.5271   
13        4915.6    0.00243596 24.1228   330.647   22.5236   
13.1      4956.22   0.00243468 24.3013   330.469   22.5173   
13.2      4989.02   0.00243553 24.4752   330.295   22.5016   
13.3      5029.9    0.002435  24.6536   330.117   22.509    
13.4      5068.83   0.00243531 24.8311   329.939   22.5148   
13.5      5104.15   0.00243515 25.0133   329.757   22.5117   
13.6      5143.92   0.00243522 25.1954   329.575   22.5094   
13.7      5183.07   0.0024352 25.3871   329.383   22.517    
13.8      5221.46   0.00243517 25.5811   329.189   22.5111   
13.9      5266.6    0.00243517 25.7734   328.997   22.4968   
14        5305.09   0.00243517 25.9588   328.811   22.508    
14.1      5344.89   0.00243517 26.1301   328.64    22.4796   
14.2      5374.64   0.00243517 26.2908   328.479   22.4612   
14.3      5413.52   0.00243517 26.4663   328.304   22.4627   
14.4      5446.71   0.00243517 26.6488   328.121   22.4655   
14.5      5485.91   0.00243517 26.8346   327.936   22.4632   
14.6      5529.85   0.00243517 27.0308   327.739   22.4566   
14.7      5567.26   0.00243517 27.2151   327.555   22.4737   
14.8      5611.86   0.00243517 27.4044   327.366   22.4804   
14.9      5652.37   0.00243517 27.5884   327.182   22.4541   
15        5683.76   0.00243517 27.7672   327.003   22.4657   
15.1      5724.61   0.00243517 27.9585   326.812   22.4674   
15.2      5765.06   0.00243517 28.144    326.626   22.4558   
15.3      5804.52   0.00243517 28.334    326.436   22.4705   
15.4      5840.93   0.00243517 28.5241   326.246   22.4561   
15.5      5883.74   0.00243517 28.7158   326.054   22.4891   
15.6      5925.36   0.00243517 28.9091   325.861   22.5236   
15.7      5962.39   0.00243517 29.0959   325.674   22.518    
15.8      6004.55   0.00243517 29.2877   325.482   22.5119   
15.9      6042.18   0.00243517 29.4811   325.289   22.5126   
16        6084.82   0.00243517 29.676    325.094   22.5303   
16.1      6123.03   0.00243517 29.8733   324.897   22.5212   
16.2      6163.94   0.00243517 30.0689   324.701   22.5165   
16.3      6206.22   0.00243517 30.2614   324.509   22.5268   
16.4      6241.82   0.00243517 30.4554   324.315   22.5277   
16.5      6284.66   0.00243517 30.6553   324.115   22.5139   
16.6      6331.71   0.00243517 30.8486   323.922   22.4963   
16.7      6368.1    0.00243517 31.0313   323.739   22.5272   
16.8      6403.77   0.00243517 31.2232   323.547   22.4911   
16.9      6446.81   0.00243517 31.4177   323.352   22.4925   
17        6484.02   0.00243517 31.6135   323.157   22.4894   
17.1      6525.97   0.00243517 31.8153   322.955   22.5154   
17.2      6567.72   0.00243517 32.013    322.757   22.5137   
17.3      6606.64   0.00243517 32.2139   322.556   22.4803   
17.4      6650.47   0.00243517 32.4175   322.353   22.4962   
17.5      6687.82   0.00243517 32.6135   322.157   22.512    
17.6      6731.38   0.00243517 32.8199   321.95    22.5263   
17.7      6773.62   0.00243517 33.0183   321.752   22.5214   
17.8      6810.06   0.00243517 33.212    321.558   22.5271   
17.9      6853.37   0.00243517 33.4121   321.358   22.5083   
18        6896.85   0.00243517 33.6113   321.159   22.484    
18.1      6936.29   0.00243517 33.801    320.969   22.5048   
18.2      6973.98   0.00243517 33.9881   320.782   22.4902   
18.3      7010.32   0.00243517 34.1844   320.586   22.5283   
18.4      7050.82   0.00243517 34.3803   320.39    22.5158   
18.5      7092.5    0.00243517 34.5841   320.186   22.4947   
18.6      7129.91   0.00243517 34.7799   319.99    22.5246   
18.7      7168.94   0.00243517 34.9784   319.792   22.5281   
18.8      7208.33   0.00243517 35.1796   319.591   22.5089   
18.9      7247.5    0.00243517 35.3776   319.393   22.504    
19        7290.89   0.00243517 35.5822   319.188   22.5192   
19.1      7330.48   0.00243517 35.7773   318.993   22.4999   
19.2      7369.91   0.00243517 35.9777   318.792   22.4815   
19.3      7406.17   0.00243517 36.1728   318.597   22.4933   
19.4      7446.48   0.00243517 36.379    318.391   22.5075   
19.5      7484.75   0.00243517 36.588    318.182   22.4891   
19.6      7530.94   0.00243517 36.7898   317.98    22.4953   
19.7      7568.3    0.00243517 36.9877   317.782   22.4813   
19.8      7609.11   0.00243517 37.191    317.579   22.5094   
19.9      7651.74   0.00243517 37.3908   317.379   22.5052   
20        7690.91   0.00243517 37.5918   317.178   22.4892   
20.1      7732.36   0.00243517 37.7911   316.979   22.5125   
20.2      7766.11   0.00243517 37.9915   316.779   22.4911   
20.3      7809.07   0.00243517 38.191    316.579   22.4715   
20.4      7846.79   0.00243517 38.3864   316.384   22.4748   
20.5      7883.04   0.00243517 38.5831   316.187   22.5134   
20.6      7922.44   0.00243517 38.7869   315.983   22.5089   
20.7      7966.69   0.00243517 38.9956   315.774   22.5126   
20.8      8006.63   0.00243517 39.1937   315.576   22.4999   
20.9      8048.8    0.00243517 39.3962   315.374   22.4891   
21        8094.6    0.00243517 39.6014   315.169   22.5144   
21.1      8133.93   0.00243517 39.7931   314.977   22.5315   
21.2      8174.3    0.00243517 39.9923   314.778   22.508    
21.3      8214.2    0.00243517 40.1904   314.58    22.4852   
21.4      8259.8    0.00243517 40.3863   314.384   22.5008   
21.5      8299.97   0.00243517 40.5814   314.189   22.479    
21.6      8340.66   0.00243517 40.7731   313.997   22.489    
21.7      8384.7    0.00243517 40.9653   313.805   22.5064   
21.8      8426.43   0.00243517 41.1583   313.612   22.5249   
21.9      8467.53   0.00243517 41.3419   313.428   22.493    
22        8504.97   0.00243517 41.5219   313.248   22.4923   
22.1      8545.26   0.00243517 41.7063   313.064   22.5144   
22.2      8596.94   0.00243517 41.9003   312.87    22.5213   
22.3      8644.26   0.00243517 42.0868   312.683   22.5178   
22.4      8682.21   0.00243517 42.266    312.504   22.4704   
22.5      8726.57   0.00243517 42.4482   312.322   22.491    
22.6      8770.66   0.00243517 42.6245   312.146   22.5313   
22.7      8810.27   0.00243517 42.7999   311.97    22.5274   
22.8      8854.45   0.00243517 42.9688   311.801   22.5106   
22.9      8893.98   0.00243517 43.1408   311.629   22.5297   
23        8933.95   0.00243517 43.3074   311.463   22.5084   
23.1      8976.46   0.00243517 43.472    311.298   22.4958   
23.2      9019.31   0.00243517 43.6324   311.138   22.51     
23.3      9057.21   0.00243517 43.7826   310.988   22.4956   
23.4      9092.86   0.00243517 43.9303   310.84    22.5011   
23.5      9127.27   0.00243517 44.0787   310.691   22.4887   
23.6      9164.98   0.00243517 44.2397   310.53    22.5115   
23.7      9205.04   0.00243517 44.4048   310.365   22.4838   
23.8      9249.75   0.00243517 44.5626   310.208   22.5008   
23.9      9290.39   0.00243517 44.721    310.049   22.5249   
24        9327.96   0.00243517 44.8769   309.893   22.4828   
24.1      9367.62   0.00243517 45.0326   309.738   22.4935   
24.2      9405.54   0.00243517 45.1885   309.582   22.4888   
24.3      9455.19   0.00243517 45.3577   309.412   22.4772   
24.4      9502.32   0.00243517 45.5285   309.242   22.5016   
24.5      9540.63   0.00243517 45.6833   309.087   22.4796   
24.6      9580.53   0.00243517 45.8396   308.931   22.4699   
24.7      9619.74   0.00243517 45.9946   308.776   22.4861   
24.8      9659.44   0.00243517 46.1561   308.614   22.5168   
24.9      9700.23   0.00243517 46.3167   308.453   22.5332   
25        9745.05   0.00243517 46.4756   308.294   22.5203   
25.1      9788.68   0.00243517 46.6352   308.135   22.5086   
25.2      9830.64   0.00243517 46.7884   307.982   22.5174   
25.3      9869.39   0.00243517 46.9403   307.83    22.516    
25.4      9906.15   0.00243517 47.0878   307.682   22.5166   
25.5      9945.89   0.00243517 47.2378   307.532   22.5003   
25.6      9985.55   0.00243517 47.3908   307.379   22.5092   
25.7      10032.2   0.00243517 47.5444   307.226   22.5254   
25.8      10078     0.00243517 47.6897   307.08    22.4853   
25.9      10109.9   0.00243517 47.8237   306.946   22.4948   
26        10146     0.00243517 47.9684   306.802   22.4926   
26.1      10187.8   0.00243517 48.1193   306.651   22.522    
26.2      10227.8   0.00243517 48.2679   306.502   22.4884   
26.3      10269.8   0.00243517 48.4191   306.351   22.4883   
26.4      10309     0.00243517 48.5644   306.206   22.4917   
26.5      10349.1   0.00243517 48.7092   306.061   22.4815   
26.6      10390.4   0.00243517 48.8582   305.912   22.4911   
26.7      10431.1   0.00243517 49.0023   305.768   22.5071   
26.8      10473.6   0.00243517 49.1481   305.622   22.4935   
26.9      10509.7   0.00243517 49.2833   305.487   22.5      
27        10547.6   0.00243517 49.4294   305.341   22.5314   
27.1      10591.7   0.00243517 49.5772   305.193   22.4864   
27.2      10629.9   0.00243517 49.7239   305.046   22.5132   
27.3      10669.3   0.00243517 49.8698   304.9     22.5362   
27.4      10714     0.00243517 50.0178   304.752   22.5269   
27.5      10757.1   0.00243517 50.1671   304.603   22.5323   
27.6      10795.6   0.00243517 50.3053   304.465   22.5133   
27.7      10827.1   0.00243517 50.4418   304.328   22.4988   
27.8      10874.4   0.00243517 50.5922   304.178   22.5136   
27.9      10918.8   0.00243517 50.738    304.032   22.5028   
28        10954.9   0.00243517 50.878    303.892   22.4747   
28.1      10998.1   0.00243517 51.023    303.747   22.5112   
28.2      11036.3   0.00243517 51.1612   303.609   22.4972   
28.3      11080.8   0.00243505 51.3091   303.461   22.5034   
28.4      11118.3   0.00243534 51.4445   303.326   22.5163   
28.5      11158.4   0.00243477 51.5832   303.187   22.475    
28.6      11201     0.00243576 51.7223   303.048   22.5047   
28.7      11237     0.00243414 51.8608   302.909   22.4999   
28.8      11281.1   0.0024367 52.0022   302.768   22.4993   
28.9      11316.8   0.00243271 52.1414   302.629   22.4973   
29        11357     0.00243912 52.2856   302.485   22.4876   
29.1      11400.2   0.00242742 52.4283   302.342   22.5043   
29.2      11445.3   0.00250707 52.5638   302.206   22.5292   
29.3      11480.1   0.00255888 52.6895   302.081   22.5217   
29.4      11516.6   0.00254718 52.8245   301.946   22.4888   
29.5      11557.6   0.00255359 52.9472   301.823   22.5076   
29.6      11589.5   0.00254961 53.0759   301.694   22.5309   
29.7      11629.7   0.00255216 53.2123   301.558   22.5197   
29.8      11669.1   0.00255054 53.3502   301.42    22.4909   
29.9      11715.4   0.00255153 53.4887   301.281   22.4715   
30        11752.8   0.00255096 53.6199   301.15    22.4905   
30.1      11789.2   0.00255125 53.7498   301.02    22.4782   
30.2      11834.5   0.00255113 53.8905   300.88    22.501    
30.3      11869.7   0.00255113 54.0234   300.747   22.5229   
30.4      11911     0.00255113 54.154    300.616   22.5232   
30.5      11950.3   0.00255113 54.2861   300.484   22.4977   
30.6      11984.4   0.00255113 54.4122   300.358   22.4745   
30.7      12022     0.00255113 54.5477   300.222   22.5071   
30.8      12062.8   0.00255113 54.6797   300.09    22.4917   
30.9      12108.3   0.00255113 54.8204   299.95    22.4907   
31        12145     0.00255113 54.9498   299.82    22.5208   
31.1      12185.1   0.00255113 55.0804   299.69    22.499    
31.2      12226.3   0.00255113 55.2172   299.553   22.4693   
31.3      12262.4   0.00255113 55.3491   299.421   22.4952   
31.4      12305     0.00255113 55.4889   299.281   22.5071   
31.5      12351.5   0.00255113 55.6131   299.157   22.5031   
31.6      12382.4   0.00255113 55.7295   299.041   22.4952   
31.7      12419.5   0.00255113 55.8579   298.912   22.4999   
31.8      12456.8   0.00255113 55.9872   298.783   22.5286   
31.9      12494.7   0.00255113 56.1208   298.649   22.5021   
32        12541.9   0.00255113 56.2626   298.508   22.4976   
32.1      12576.6   0.00255113 56.3949   298.375   22.4957   
32.2      12622.2   0.00255113 56.5321   298.238   22.4768   
32.3      12665.2   0.00255113 56.6669   298.103   22.4901   
32.4      12703.8   0.00255113 56.7949   297.975   22.5046   
32.5      12741.9   0.00255113 56.923    297.847   22.5076   
32.6      12779.2   0.00255113 57.0557   297.714   22.4793   
32.7      12823.6   0.00255113 57.1951   297.575   22.4834   
32.8      12865.4   0.00255113 57.3286   297.442   22.4819   
32.9      12902.7   0.00255113 57.4642   297.306   22.4726   
33        12940.8   0.00255113 57.597    297.173   22.4984   
33.1      12977.4   0.00255113 57.7349   297.035   22.5134   
33.2      13021.6   0.00255113 57.8785   296.892   22.5115   
33.3      13068.4   0.00255113 58.0158   296.754   22.4875   
33.4      13108.6   0.00255113 58.1441   296.626   22.4855   
33.5      13148.8   0.00255113 58.2793   296.491   22.4854   
33.6      13190.8   0.00255113 58.416    296.354   22.4734   
33.7      13228.6   0.00255113 58.5463   296.224   22.49     
33.8      13270     0.00255113 58.6833   296.087   22.5056   
33.9      13315.5   0.00255113 58.8197   295.95    22.4812   
34        13352.6   0.00255113 58.9534   295.817   22.4742   
34.1      13393.6   0.00255113 59.0665   295.704   22.4882   
34.2      13406.5   0.00255113 59.1066   295.664   22.4787   
34.3      13412.7   0.00255113 59.1371   295.633   22.4942   
34.4      13399.5   0.00255113 59.0976   295.673   22.497    
34.5      13375.4   0.00255113 59.028    295.742   22.4975   
34.6      13343.8   0.00255113 58.9511   295.819   22.5105   
34.7      13306.3   0.00255113 58.8688   295.901   22.5046   
34.8      13278.6   0.00255113 58.798    295.972   22.5016   
34.9      13251.8   0.00255113 58.7255   296.045   22.4688   
35        13221.4   0.00255113 58.6355   296.135   22.5054   
35.1      13182.2   0.00255113 58.526    296.244   22.4879   
35.2      13141.2   0.00255113 58.4263   296.344   22.4706   
35.3      13098.9   0.00255113 58.3165   296.454   22.5024   
35.4      13063.1   0.00255113 58.2083   296.562   22.4992   
35.5      13023.6   0.00255113 58.094    296.676   22.4817   
35.6      12979.6   0.00255113 57.9754   296.795   22.4751   
35.7      12944.1   0.00255113 57.8665   296.904   22.5115   
35.8      12903.3   0.00255113 57.7499   297.02    22.4952   
35.9      12860     0.00255113 57.6287   297.141   22.4936   
36        12822.4   0.00255113 57.5193   297.251   22.4847   
36.1      12782.8   0.00255113 57.3978   297.372   22.5131   
36.2      12743.2   0.00255113 57.2729   297.497   22.5081   
36.3      12696.1   0.00255113 57.1459   297.624   22.4678   
36.4      12652.1   0.00255113 57.022    297.748   22.4801   
36.5      12607.6   0.00255113 56.9044   297.866   22.482    
36.6      12570.6   0.00255113 56.7869   297.983   22.5029   
36.7      12534.6   0.00255113 56.6773   298.093   22.4832   
36.8      12493.2   0.00255113 56.5564   298.214   22.4736   
36.9      12451.1   0.00255113 56.4364   298.334   22.4637   
37        12408.6   0.00255113 56.3175   298.453   22.4784   
37.1      12370.3   0.00255113 56.2013   298.569   22.4875   
37.2      12326.5   0.00255113 56.0735   298.697   22.4982   
37.3      12286.7   0.00255113 55.9406   298.83    22.4896   
37.4      12238     0.00255113 55.8166   298.954   22.4835   
37.5      12205.1   0.00255113 55.6997   299.07    22.4788   
37.6      12165     0.00255113 55.5739   299.196   22.4849   
37.7      12119.9   0.00255113 55.4463   299.324   22.4851   
37.8      12082.2   0.00255113 55.3237   299.446   22.4702   
37.9      12037.1   0.00255113 55.1971   299.573   22.5184   
38        11998.9   0.00255113 55.0756   299.694   22.5198   
38.1      11958.5   0.00255113 54.9575   299.813   22.4961   
38.2      11923.6   0.00255113 54.8445   299.926   22.494    
38.3      11889.8   0.00255113 54.7304   300.04    22.5007   
38.4      11848     0.00255113 54.6101   300.16    22.5177   
38.5      11808     0.00255113 54.4857   300.284   22.4892   
38.6      11769.5   0.00255113 54.3671   300.403   22.4695   
38.7      11730.1   0.00255113 54.2386   300.532   22.4877   
38.8      11688.9   0.00255113 54.1096   300.661   22.4857   
38.9      11646.3   0.00255113 53.9794   300.791   22.4937   
39        11608     0.00255113 53.8524   300.918   22.4975   
39.1      11566.6   0.00255113 53.7303   301.04    22.4987   
39.2      11527.4   0.00255113 53.6071   301.163   22.4888   
39.3      11492.6   0.00255113 53.4898   301.28    22.5022   
39.4      11450.2   0.00255113 53.3647   301.405   22.4861   
39.5      11413.2   0.00255113 53.2371   301.533   22.4863   
39.6      11374.4   0.00255113 53.1125   301.658   22.4755   
39.7      11335     0.00255113 52.9785   301.792   22.4735   
39.8      11295     0.00255113 52.8486   301.922   22.4932   
39.9      11248     0.00255113 52.7175   302.053   22.5251   
40        11213     0.00255113 52.5866   302.184   22.5068   
40.1      11172.5   0.00255113 52.4596   302.311   22.4887   
40.2      11128.6   0.00255113 52.3223   302.448   22.5021   
40.3      11084.8   0.00255113 52.1841   302.586   22.4962   
40.4      11046.9   0.00255113 52.0528   302.717   22.4984   
40.5      11008.1   0.00255113 51.9199   302.85    22.4729   
40.6      10960.9   0.00255113 51.7818   302.988   22.4848   
40.7      10926     0.00255113 51.6512   303.119   22.4893   
40.8      10889.3   0.00255113 51.5237   303.246   22.4898   
40.9      10846.5   0.00255113 51.3863   303.384   22.4743   
41        10804.6   0.00255113 51.2533   303.517   22.4978   
41.1      10766     0.00255113 51.1212   303.649   22.4787   
41.2      10725.4   0.00255113 50.9869   303.783   22.477    
41.3      10687.6   0.00255113 50.8584   303.912   22.4633   
41.4      10652.1   0.00255113 50.7252   304.045   22.4892   
41.5      10608.3   0.00255113 50.5859   304.184   22.5085   
41.6      10565.8   0.00255113 50.4522   304.318   22.4851   
41.7      10531.6   0.00255113 50.3255   304.445   22.4874   
41.8      10490.9   0.00255113 50.1885   304.582   22.4643   
41.9      10451.9   0.00255113 50.0475   304.723   22.4786   
42        10408.3   0.00255113 49.912    304.858   22.5025   
42.1      10370     0.00255113 49.7706   305       22.5001   
42.2      10333.6   0.00255113 49.6279   305.142   22.4897   
42.3      10286.1   0.00255113 49.4852   305.285   22.4838   
42.4      10249.3   0.00255113 49.3443   305.426   22.4635   
42.5      10208.6   0.00255113 49.2026   305.567   22.4807   
42.6      10166     0.00255113 49.0581   305.712   22.5108   
42.7      10120.8   0.00255113 48.9125   305.858   22.4798   
42.8      10084     0.00255113 48.7782   305.992   22.4581   
42.9      10048.1   0.00255113 48.6378   306.132   22.4905   
43        10003.6   0.00255113 48.4886   306.282   22.4575   
43.1      9962.51   0.00255113 48.3433   306.427   22.4915   
43.2      9926.45   0.00255113 48.206    306.564   22.5102   
43.3      9888.62   0.00255113 48.0677   306.702   22.4943   
43.4      9847.17   0.00255113 47.924    306.846   22.5135   
43.5      9807.34   0.00255113 47.7845   306.986   22.4821   
43.6      9767.44   0.00255113 47.6382   307.132   22.5032   
43.7      9731.24   0.00255113 47.4959   307.274   22.4539   
43.8      9688.22   0.00255113 47.3492   307.421   22.4949   
43.9      9644.54   0.00255113 47.1991   307.571   22.5189   
44        9610.76   0.00255113 47.0592   307.711   22.4979   
44.1      9565.75   0.00255113 46.9102   307.86    22.5034   
44.2      9530.49   0.00255113 46.7643   308.006   22.4815   
44.3      9496.36   0.00255113 46.6251   308.145   22.4963   
44.4      9449.24   0.00255113 46.4678   308.302   22.4837   
44.5      9410.4    0.00255113 46.3156   308.455   22.4826   
44.6      9370.42   0.00255113 46.1654   308.605   22.4994   
44.7      9325.91   0.00255113 46.0084   308.762   22.4828   
44.8      9286.56   0.00255113 45.8582   308.912   22.5078   
44.9      9249.93   0.00255113 45.7129   309.057   22.4814   
45        9211.15   0.00255113 45.5651   309.205   22.4661   
45.1      9169.31   0.00255113 45.4083   309.362   22.4832   
45.2      9133.49   0.00255113 45.2536   309.516   22.4669   
45.3      9088.61   0.00255113 45.0936   309.677   22.4929   
45.4      9046.93   0.00255113 44.936    309.834   22.4755   
45.5      9012.49   0.00255113 44.7813   309.989   22.4841   
45.6      8972.05   0.00255113 44.6223   310.148   22.4873   
45.7      8926.24   0.00255113 44.4637   310.306   22.4734   
45.8      8888.57   0.00255113 44.3052   310.465   22.4944   
45.9      8848.54   0.00255113 44.1515   310.619   22.4874   
46        8810.11   0.00255113 43.9902   310.78    22.5296   
46.1      8771.69   0.00255113 43.8296   310.94    22.5082   
46.2      8733.11   0.00255113 43.6737   311.096   22.4965   
46.3      8694.6    0.00255113 43.5173   311.253   22.4745   
46.4      8655.26   0.00255113 43.3592   311.411   22.4613   
46.5      8621.19   0.00255113 43.2056   311.565   22.472    
46.6      8581.45   0.00255113 43.0436   311.726   22.4764   
46.7      8540.74   0.00255113 42.8767   311.893   22.5116   
46.8      8499.44   0.00255113 42.7073   312.063   22.5164   
46.9      8461.31   0.00255113 42.5402   312.23    22.4868   
47        8420.78   0.00255113 42.3722   312.398   22.4642   
47.1      8379.96   0.00255113 42.1975   312.573   22.4906   
47.2      8344.72   0.00255113 42.0278   312.742   22.479    
47.3      8308.98   0.00255113 41.8622   312.908   22.5029   
47.4      8275.61   0.00255113 41.6866   313.084   22.5007   
47.5      8235.71   0.00255113 41.503    313.267   22.4909   
47.6      8193.77   0.00255113 41.318    313.452   22.4938   
47.7      8153.32   0.00255113 41.1327   313.637   22.5071   
47.8      8109.33   0.00255113 40.9421   313.828   22.4984   
47.9      8072.4    0.00255113 40.7562   314.014   22.5116   
48        8033.47   0.00255113 40.5667   314.203   22.5006   
48.1      7991.79   0.00255113 40.3773   314.393   22.4825   
48.2      7953.25   0.00255113 40.193    314.577   22.4962   
48.3      7914.13   0.00255113 40.0073   314.763   22.4957   
48.4      7879.11   0.00255113 39.8192   314.951   22.4901   
48.5      7841.56   0.00255113 39.6257   315.144   22.499    
48.6      7799.66   0.00255113 39.4246   315.346   22.4842   
48.7      7763.78   0.00255113 39.227    315.543   22.5063   
48.8      7719.19   0.00255113 39.0261   315.744   22.5091   
48.9      7681.64   0.00255113 38.8306   315.939   22.4976   
49        7641.9    0.00255113 38.6296   316.14    22.5056   
49.1      7600.81   0.00255113 38.4264   316.344   22.4942   
49.2      7564.5    0.00255113 38.2269   316.543   22.484    
49.3      7518.34   0.00255113 38.0164   316.754   22.5162   
49.4      7474.45   0.00255113 37.806    316.964   22.5062   
49.5      7433.97   0.00255113 37.5976   317.172   22.5278   
49.6      7393.38   0.00255113 37.3966   317.374   22.5103   
49.7      7350.81   0.00255113 37.189    317.581   22.4835   
49.8      7307.97   0.00255113 36.9884   317.782   22.5136   
49.9      7270.39   0.00255113 36.7892   317.981   22.4963   
50        7230.14   0.00255113 36.591    318.179   22.4877   
50.1      7189.05   0.00255113 36.3859   318.384   22.4751   
50.2      7145.81   0.00255113 36.1797   318.59    22.4831   
50.3      7102.76   0.00255113 35.9689   318.801   22.5041   
50.4      7055.99   0.00255113 35.7519   319.018   22.4786   
50.5      7010.61   0.00255113 35.5399   319.23    22.4767   
50.6      6972.43   0.00255113 35.3417   319.428   22.4984   
50.7      6936.19   0.00255113 35.1443   319.626   22.48     
50.8      6889.76   0.00255113 34.9381   319.832   22.4818   
50.9      6848.36   0.00255113 34.7356   320.035   22.5035   
51        6808.76   0.00255113 34.5352   320.235   22.4885   
51.1      6769.8    0.00255113 34.3347   320.435   22.4903   
51.2      6725.25   0.00255113 34.1267   320.643   22.5019   
51.3      6683.92   0.00255113 33.9228   320.847   22.5007   
51.4      6643.44   0.00255113 33.7274   321.043   22.4756   
51.5      6606      0.00255113 33.5359   321.234   22.4656   
51.6      6570.46   0.00255113 33.3407   321.429   22.5079   
51.7      6527.46   0.00255113 33.1362   321.634   22.5085   
51.8      6480.94   0.00255113 32.9368   321.833   22.4846   
51.9      6438.07   0.00255113 32.7354   322.035   22.505    
52        6399.22   0.00255113 32.5369   322.233   22.4849   
52.1      6361.2    0.00255113 32.3413   322.429   22.5053   
52.2      6319.75   0.00255113 32.1398   322.63    22.5114   
52.3      6274.02   0.00255113 31.9446   322.826   22.4886   
52.4      6233.19   0.00255113 31.7484   323.022   22.4959   
52.5      6192.75   0.00255113 31.5564   323.214   22.5036   
52.6      6156.46   0.00255113 31.3707   323.399   22.4942   
52.7      6118.83   0.00255113 31.1798   323.59    22.4588   
52.8      6070.81   0.00255122 30.9794   323.791   22.5012   
52.9      6035.27   0.00255103 30.7862   323.984   22.5109   
53        5996.39   0.00255139 30.5913   324.179   22.5216   
53.1      5951.69   0.00255078 30.3924   324.378   22.495    
53.2      5910.26   0.00255176 30.203    324.567   22.4706   
53.3      5874.59   0.00255023 30.0165   324.754   22.5168   
53.4      5837.68   0.00255261 29.8292   324.941   22.5021   
53.5      5798.26   0.00254875 29.64     325.13    22.5102   
53.6      5754.55   0.00255601 29.4456   325.325   22.5151   
53.7      5712.36   0.00253115 29.2502   325.52    22.468    
53.8      5674.87   0.00243641 29.0622   325.708   22.4756   
53.9      5635.16   0.00243626 28.8718   325.898   22.4943   
54        5590.04   0.00243428 28.6788   326.091   22.5122   
54.1      5560.24   0.00243572 28.4904   326.28    22.5194   
54.2      5514.38   0.00243477 28.3005   326.47    22.4883   
54.3      5474.06   0.00243537 28.1021   326.668   22.4748   
54.4      5435.48   0.00243501 27.9167   326.853   22.4899   
54.5      5392.27   0.0024352 27.7194   327.051   22.5131   
54.6      5351.35   0.00243512 27.5207   327.249   22.5238   
54.7      5310.77   0.00243514 27.3301   327.44    22.5009   
54.8      5272.63   0.00243517 27.1384   327.632   22.4781   
54.9      5227.24   0.00243517 26.9428   327.827   22.4812   
55        5183.94   0.00243517 26.7497   328.02    22.4989   
55.1      5148.69   0.00243517 26.5621   328.208   22.5094   
55.2      5109.8    0.00243517 26.3745   328.396   22.4929   
55.3      5065.12   0.00243517 26.1791   328.591   22.4856   
55.4      5026.89   0.00243517 25.9765   328.794   22.4951   
55.5      4978.68   0.00243517 25.7718   328.998   22.5175   
55.6      4932.33   0.00243517 25.5631   329.207   22.5064   
55.7      4896.28   0.00243517 25.3732   329.397   22.4831   
55.8      4851.99   0.00243517 25.178    329.592   22.4785   
55.9      4806.66   0.00243517 24.9826   329.787   22.5248   
56        4767.86   0.00243517 24.7901   329.98    22.5016   
56.1      4727.24   0.00243517 24.5939   330.176   22.4991   
56.2      4687.62   0.00243517 24.4058   330.364   22.5052   
56.3      4647.31   0.00243517 24.2124   330.558   22.5071   
56.4      4602.4    0.00243517 24.0116   330.759   22.4998   
56.5      4563.75   0.00243517 23.8127   330.957   22.5187   
56.6      4516.07   0.00243517 23.6111   331.159   22.5307   
56.7      4471.09   0.00243517 23.4153   331.355   22.5041   
56.8      4434.48   0.00243517 23.2253   331.545   22.5053   
56.9      4392.87   0.00243517 23.0318   331.738   22.484    
57        4351.46   0.00243517 22.842    331.928   22.5013   
57.1      4310.55   0.00243517 22.6511   332.119   22.4676   
57.2      4271.34   0.00243517 22.466    332.304   22.492    
57.3      4229.75   0.00243517 22.2753   332.495   22.487    
57.4      4192.8    0.00243517 22.089    332.681   22.4803   
57.5      4155.28   0.00243517 21.9106   332.86    22.5098   
57.6      4115.76   0.00243517 21.7334   333.037   22.4958   
57.7      4075.25   0.00243517 21.5566   333.214   22.4981   
57.8      4034.66   0.00243517 21.3703   333.4     22.5033   
57.9      3996.6    0.00243517 21.1884   333.582   22.4812   
58        3958.11   0.00243517 21.006    333.764   22.5203   
58.1      3921.46   0.00243517 20.8282   333.942   22.5201   
58.2      3879.28   0.00243517 20.6397   334.13    22.4782   
58.3      3836.36   0.00243517 20.4509   334.319   22.4842   
58.4      3800.79   0.00243517 20.2615   334.509   22.4799   
58.5      3754.14   0.00243517 20.0675   334.703   22.4748   
58.6      3714.24   0.00243517 19.8736   334.897   22.4951   
58.7      3672.92   0.00243517 19.682    335.088   22.4872   
58.8      3631.54   0.00243517 19.4897   335.28    22.4984   
58.9      3584.98   0.00243517 19.3024   335.468   22.5118   
59        3544.99   0.00243517 19.1114   335.659   22.5064   
59.1      3508.52   0.00243517 18.9304   335.84    22.4938   
59.2      3467.74   0.00243517 18.7429   336.027   22.5142   
59.3      3424.56   0.00243517 18.55     336.22    22.5168   
59.4      3384.95   0.00243517 18.3644   336.406   22.4625   
59.5      3344.6    0.00243517 18.1816   336.589   22.5147   
59.6      3303.91   0.00243517 18.0037   336.766   22.4742   
59.7      3265.63   0.00243517 17.8283   336.942   22.4774   
59.8      3232.96   0.00243517 17.6551   337.115   22.5014   
59.9      3192.67   0.00243517 17.4739   337.296   22.4758   
60        3151.39   0.00243517 17.2838   337.486   22.5025   
60.1      3114.98   0.00243517 17.1006   337.67    22.5252   
60.2      3068.13   0.00243517 16.9052   337.865   22.506    
60.3      3024.17   0.00243517 16.7171   338.053   22.5151   
60.4      2988.95   0.00243517 16.5367   338.233   22.4792   
60.5      2947.92   0.00243517 16.3527   338.417   22.5056   
60.6      2906.81   0.00243517 16.1634   338.607   22.5273   
60.7      2867.39   0.00243517 15.9758   338.794   22.5099   
60.8      2823.76   0.00243517 15.7851   338.985   22.5145   
60.9      2785.62   0.00243517 15.5994   339.171   22.5046   
61        2745.13   0.00243517 15.4062   339.364   22.4856   
61.1      2701.17   0.00243517 15.2141   339.556   22.4862   
61.2      2661.84   0.00243517 15.0278   339.742   22.5053   
61.3      2622.49   0.00243517 14.8415   339.929   22.5201   
61.4      2577.15   0.00243517 14.6526   340.118   22.4942   
61.5      2538.85   0.00243517 14.4609   340.309   22.4993   
61.6      2497.74   0.00243517 14.2744   340.496   22.5423   
61.7      2454.75   0.00243517 14.0796   340.69    22.5203   
61.8      2413.55   0.00243517 13.8904   340.88    22.4913   
61.9      2373.76   0.00243517 13.6981   341.072   22.5134   
62        2331.03   0.00243517 13.5068   341.263   22.4997   
62.1      2290.13   0.00243517 13.3165   341.454   22.5152   
62.2      2253.23   0.00243517 13.1347   341.635   22.5188   
62.3      2213.14   0.00243517 12.9542   341.816   22.5119   
62.4      2171.1    0.00243517 12.761    342.009   22.4833   
62.5      2131.45   0.00243517 12.5726   342.197   22.4804   
62.6      2085.09   0.00243517 12.3743   342.396   22.5072   
62.7      2048.43   0.00243517 12.1843   342.586   22.5218   
62.8      2003.12   0.00243517 11.9918   342.778   22.5142   
62.9      1961.34   0.00243517 11.7919   342.978   22.4992   
63        1922.99   0.00243517 11.6103   343.16    22.488    
63.1      1882.59   0.00243517 11.4268   343.343   22.5149   
63.2      1839.39   0.00243517 11.2356   343.535   22.5173   
63.3      1801.87   0.00243517 11.0492   343.721   22.5204   
63.4      1758.55   0.00243517 10.8599   343.91    22.5283   
63.5      1716.01   0.00243517 10.6691   344.101   22.4607   
63.6      1680.14   0.00243517 10.4784   344.292   22.4968   
63.7      1639.71   0.00243517 10.2856   344.485   22.5173   
63.8      1595.59   0.00243517 10.0923   344.678   22.48     
63.9      1555.52   0.00243517 9.90002   344.87    22.4954   
64        1516.35   0.00243517 9.71122   345.059   22.4818   
64.1      1474.44   0.00243517 9.5167    345.253   22.5018   
64.2      1433.32   0.00243517 9.32676   345.443   22.4792   
64.3      1392.63   0.00243517 9.13447   345.636   22.5159   
64.4      1349.04   0.00243517 8.94354   345.827   22.512    
64.5      1317.49   0.00243517 8.75691   346.013   22.5149   
64.6      1273.29   0.00243517 8.57198   346.198   22.5001   
64.7      1227.6    0.00243517 8.38003   346.39    22.4977   
64.8      1194.64   0.00243517 8.19641   346.574   22.4945   
64.9      1153.08   0.00243526 8.01445   346.756   22.4959   
65        1117.07   0.00243507 7.82778   346.942   22.5014   
65.1      1079.29   0.00243543 7.63748   347.133   22.5041   
65.2      1043.31   0.00243482 7.44973   347.32    22.5122   
65.3      995.468   0.0024358 7.25294   347.517   22.4895   
65.4      958.26    0.00243427 7.05736   347.713   22.4691   
65.5      923.914   0.00243665 6.86455   347.906   22.5097   
65.6      877.729   0.00243279 6.66206   348.108   22.5146   
65.7      849.587   0.00244005 6.46571   348.304   22.4603   
65.8      808.815   0.00241519 6.26372   348.506   22.4875   
65.9      772.099   0.00232045 6.05158   348.719   22.4994   
66        727.998   0.0023203 5.84076   348.929   22.4809   
66.1      685.553   0.00231832 5.62617   349.144   22.5041   
66.2      651.818   0.00231976 5.41728   349.353   22.4863   
66.3      610.602   0.00231881 5.20473   349.565   22.4808   
66.4      572.227   0.00231941 4.99244   349.778   22.5114   
66.5      529.077   0.00231905 4.77543   349.995   22.5045   
66.6      488       0.00231924 4.56035   350.21    22.4986   
66.7      453.579   0.00231916 4.34606   350.424   22.5081   
66.8      411.766   0.00231918 4.13013   350.64    22.5011   
66.9      372.835   0.00231921 3.91327   350.857   22.5126   
67        335.043   0.00231921 3.6979    351.072   22.4895   
67.1      289.275   0.00231921 3.47617   351.294   22.5043   
67.2      253.63    0.00231921 3.26231   351.508   22.5117   
67.3      212.925   0.00231921 3.04109   351.729   22.5054   
67.4      176.767   0.00231921 2.81617   351.954   22.4841   
67.5      136.595   0.00231921 2.58553   352.185   22.5173   
67.6      102.366   0.00231921 2.34596   352.424   22.5148   
67.7      65.8331   0.00231921 2.11535   352.655   22.4767   
67.8      33.1881   0.00231921 1.87488   352.895   22.5081   
67.9      7.62662   0.00231921 1.63075   353.139   22.4865   
68        -9.79989  0.00231921 1.37322   353.397   22.4961   
68.1      -29.7827  0.00231921 1.08394   353.686   22.5157   
68.2      -43.8819  0.00231921 0.771239  353.999   22.499    

**END