**HEADER
RELEASE   Release of TYDEX-Format                 1.3
MEASID    Measurement ID                          cvert_2p7_13fz342_P00cam0_G07_dP45_110196_02
SUPPLIER  Data Supplier                           ika-fka / SteiReP / friederichs
DATE      Date                                    30/01/20
CLCKTIME  Clocktime                               14:07

**COMMENTS
------------------------------------
Bridgestone Potenza S001 MO 245/50R18 100W DOT4918
Vertical tyre stiffness on flat surface on oblique cleat at 0 deg camber
------------------------------------

**CONSTANTS
LOCATION  Location                      -         ika-fka, Aachen
MANUFACT  Tyre brand name               -         Bridgestone
IDENTITY  Commercial name               -         Potenza S001 MO
INFLPRES  Inflation Pressure            bar       2.7
TYREMASS  Tyre mass                     kg        11.95
OVALLDIA  Measured outside diameter     m         0.708
NOMDIAME  Nominal diameter of tyre      m         0.7022
NOMWIDTH  Nominal section width of tyre m         0.245
ASPRATIO  Nominal aspect ratio          -         0.5
SPEEDSYM  Speed symbol                  -         W
LOADIND   Load index                    -         100
TYROTIN   Tyre rot. inertia about YC    kgm2      1.233
RIMDIAME  Nominal rim diameter          m         0.4572
RIMWIDTH  Rim width                     m         0.2032
RIMROTIN  Rim rotational inertia        kgm2      0.386
TESTRIG   Test rig                      -         Stiffness Tyre Test Rig
CURVTRSF  Curvature of track surface    1/m       0
TRCKSURF  Surface of Track              -         Korund P80
TRCKCOND  Condition of Track Surface    -         dry
OBSTTYPE  Type of obstacle              -         G07
OBSTSURF  Surface of obstacle           -         Steel
CLEAT_H   Cleat height                  m         0.01
CLEAT_L   Cleat length                  m         0.02
CLT_BVED  Cleat bevel edge              m         0.002
CLT_ORI   Cleat orientation             deg       45
SLIPANGL  Slip angle                    deg       0
INCLANGL  Inclination angle             deg       0
LONGVEL   Longitudinal velocity         m/s       0

**MEASURCHANNELS
RUNTIME   Running Time                  s         1         0         0
FZW       Vertical Force                N         1         0         0
INCLANGL  Inclination angle             deg       1         0         0
TYREDEFW  Tyre deflection               mm        1         0         0
DSTGRWHC  Dist. ground - WHL. centre    mm        1         0         0
TRDTEMP   Tread Surface Temperature     deg C     1         0         0

**MEASURDATA
0         -6.0101   0.00231921 -0.155715 354.244   22.4858   
0.1       1.66796   0.00231921 0.0432149 354.046   22.4616   
0.2       19.6945   0.00231921 0.241954  353.847   22.4617   
0.3       49.688    0.00231921 0.410599  353.678   22.4636   
0.4       65.2055   0.00231921 0.546957  353.542   22.4608   
0.5       84.8694   0.00231921 0.68589   353.403   22.4751   
0.6       103.653   0.00231921 0.813159  353.276   22.4892   
0.7       117.59    0.00231921 0.951149  353.138   22.463    
0.8       141.68    0.00231921 1.09063   352.998   22.4844   
0.9       157.07    0.00231921 1.25971   352.829   22.4581   
1         184.985   0.00231921 1.46918   352.62    22.4829   
1.1       215.589   0.00231921 1.69818   352.391   22.5212   
1.2       253.234   0.00231921 1.94815   352.141   22.4745   
1.3       287.402   0.00231921 2.19875   351.89    22.4532   
1.4       329.846   0.00231921 2.45512   351.634   22.4577   
1.5       368.081   0.00231921 2.71629   351.372   22.4553   
1.6       414.997   0.00231921 2.97279   351.116   22.4749   
1.7       458.689   0.00231921 3.22662   350.862   22.4813   
1.8       500.829   0.00231921 3.47865   350.61    22.4725   
1.9       541.378   0.00231921 3.71784   350.371   22.5063   
2         587.041   0.00231921 3.95923   350.13    22.4715   
2.1       625.215   0.00231921 4.19907   349.89    22.5164   
2.2       673.187   0.00231921 4.43336   349.655   22.4802   
2.3       713.025   0.00231921 4.65507   349.434   22.4897   
2.4       751.651   0.00231921 4.8874    349.201   22.466    
2.5       796.015   0.00231921 5.12325   348.966   22.4725   
2.6       841.027   0.00231921 5.35573   348.733   22.4582   
2.7       886.006   0.00231921 5.58551   348.503   22.4549   
2.8       924.765   0.00231921 5.8032    348.286   22.454    
2.9       960.046   0.00231921 6.0181    348.071   22.4543   
3         1005.1    0.00231921 6.24625   347.842   22.4567   
3.1       1047.22   0.00231921 6.47184   347.617   22.4541   
3.2       1083.01   0.00231921 6.68936   347.399   22.4845   
3.3       1125.33   0.00231921 6.91921   347.17    22.468    
3.4       1167.9    0.00231921 7.14742   346.941   22.46     
3.5       1209.96   0.00231921 7.38196   346.707   22.4597   
3.6       1252.36   0.00231921 7.61564   346.473   22.4584   
3.7       1296.34   0.00231921 7.8485    346.24    22.4547   
3.8       1338.07   0.00231921 8.07412   346.015   22.4618   
3.9       1378.81   0.00231921 8.29749   345.791   22.4803   
4         1416.77   0.00231921 8.51736   345.571   22.4631   
4.1       1464.56   0.00231921 8.74351   345.345   22.4606   
4.2       1502.41   0.00231921 8.96287   345.126   22.468    
4.3       1541.05   0.00231921 9.17633   344.912   22.4887   
4.4       1585.03   0.00231921 9.4044    344.684   22.4718   
4.5       1630.23   0.00231921 9.63424   344.455   22.4823   
4.6       1672.89   0.00231921 9.85903   344.23    22.4623   
4.7       1716.66   0.00231921 10.086    344.003   22.4575   
4.8       1760.37   0.00231921 10.3027   343.786   22.4586   
4.9       1797.66   0.00231921 10.5124   343.576   22.4598   
5         1839.74   0.00231921 10.727    343.362   22.4706   
5.1       1880.58   0.00231921 10.9436   343.145   22.4628   
5.2       1923.22   0.00231921 11.1596   342.929   22.4603   
5.3       1965.46   0.00231921 11.3735   342.715   22.4994   
5.4       2007.29   0.00231921 11.5794   342.509   22.4741   
5.5       2044.44   0.00231921 11.7753   342.313   22.4548   
5.6       2080.37   0.00231921 11.9668   342.122   22.4716   
5.7       2119.08   0.00231921 12.17     341.919   22.4529   
5.8       2157.17   0.00231921 12.3774   341.711   22.4801   
5.9       2201.2    0.00231921 12.5883   341.5     22.4798   
6         2241.65   0.00231921 12.7916   341.297   22.4551   
6.1       2278.27   0.00231921 12.9922   341.097   22.4914   
6.2       2318.98   0.00231921 13.2037   340.885   22.4579   
6.3       2359.41   0.00231921 13.4127   340.676   22.4645   
6.4       2396.23   0.00231921 13.6135   340.475   22.4616   
6.5       2434.96   0.00231921 13.8281   340.261   22.4635   
6.6       2484.53   0.00231921 14.0522   340.037   22.4729   
6.7       2524.67   0.00231921 14.2636   339.825   22.45     
6.8       2563.65   0.00231921 14.4794   339.609   22.4655   
6.9       2610.83   0.00231921 14.6921   339.397   22.5011   
7         2652.3    0.00231921 14.9036   339.185   22.4651   
7.1       2691.49   0.00231921 15.1044   338.984   22.4772   
7.2       2723.44   0.00231921 15.3105   338.778   22.4606   
7.3       2767.14   0.00231921 15.5249   338.564   22.4751   
7.4       2815.58   0.00231921 15.7384   338.35    22.4583   
7.5       2852.68   0.00231921 15.9492   338.14    22.4602   
7.6       2894.01   0.00231921 16.17     337.919   22.4557   
7.7       2940      0.00231921 16.3932   337.696   22.4749   
7.8       2985.49   0.00231921 16.6086   337.48    22.4663   
7.9       3026.2    0.00231921 16.8129   337.276   22.4609   
8         3066.99   0.00231921 17.0185   337.07    22.4574   
8.1       3104.39   0.00231921 17.224    336.865   22.4559   
8.2       3143.32   0.00231921 17.4369   336.652   22.4549   
8.3       3191.72   0.00231921 17.6478   336.441   22.4785   
8.4       3232.52   0.00231921 17.8475   336.241   22.5105   
8.5       3270.97   0.00231921 18.0424   336.046   22.4653   
8.6       3308.29   0.00231921 18.2296   335.859   22.4499   
8.7       3345.38   0.00231921 18.4159   335.673   22.4715   
8.8       3380.89   0.00231921 18.6012   335.488   22.4491   
8.9       3421.68   0.00231921 18.8032   335.286   22.4522   
9         3458.68   0.00231921 19.0026   335.086   22.4721   
9.1       3502.51   0.00231921 19.2028   334.886   22.476    
9.2       3540.97   0.00231921 19.405    334.684   22.4747   
9.3       3576.05   0.00231921 19.6034   334.485   22.485    
9.4       3616.11   0.00231921 19.8049   334.284   22.4611   
9.5       3656.74   0.00231921 20.0102   334.079   22.4662   
9.6       3701.16   0.00231921 20.2183   333.87    22.4605   
9.7       3738.04   0.00231921 20.4227   333.666   22.4614   
9.8       3783.71   0.00231921 20.6333   333.455   22.4517   
9.9       3824.96   0.00231921 20.8354   333.253   22.4556   
10        3860.03   0.00231921 21.0334   333.055   22.4998   
10.1      3901.3    0.00231921 21.2411   332.848   22.47     
10.2      3943.16   0.00231921 21.448    332.641   22.4677   
10.3      3982.98   0.00231921 21.6518   332.437   22.4665   
10.4      4022.86   0.00231921 21.8555   332.233   22.4659   
10.5      4064.68   0.00231921 22.0619   332.027   22.4628   
10.6      4106.78   0.00231921 22.2691   331.82    22.4488   
10.7      4147.4    0.00231912 22.4775   331.611   22.4634   
10.8      4186.22   0.00231929 22.6806   331.408   22.501    
10.9      4228.61   0.00231897 22.8908   331.198   22.4739   
11        4265.43   0.00231952 23.0948   330.994   22.4859   
11.1      4307.39   0.00231864 23.3027   330.786   22.4648   
11.2      4353.68   0.00232   23.5032   330.586   22.464    
11.3      4387.68   0.00231789 23.7015   330.387   22.4588   
11.4      4430.53   0.00232133 23.9076   330.181   22.4543   
11.5      4468.58   0.0023148 24.1049   329.984   22.4775   
11.6      4507.46   0.00233769 24.3002   329.789   22.4989   
11.7      4547.92   0.00243243 24.4896   329.599   22.4786   
11.8      4584.29   0.00243456 24.672    329.417   22.4562   
11.9      4623.11   0.0024358 24.8665   329.222   22.465    
12        4661.28   0.00243478 25.0632   329.026   22.4647   
12.1      4702.01   0.00243547 25.2628   328.826   22.4639   
12.2      4745.52   0.00243504 25.4633   328.625   22.4644   
12.3      4793.42   0.00243528 25.6542   328.435   22.4527   
12.4      4837.06   0.00243516 25.847    328.242   22.4559   
12.5      4873.95   0.00243521 26.028    328.061   22.4602   
12.6      4918.1    0.0024352 26.2123   327.876   22.4737   
12.7      4956.08   0.00243517 26.3814   327.707   22.449    
12.8      4991.78   0.00243517 26.5496   327.539   22.457    
12.9      5038.4    0.00243517 26.7273   327.361   22.4527   
13        5077.4    0.00243517 26.8948   327.194   22.4724   
13.1      5110.8    0.00243517 27.0702   327.019   22.5214   
13.2      5154.17   0.00243517 27.2486   326.84    22.469    
13.3      5197.2    0.00243517 27.4281   326.661   22.458    
13.4      5238.44   0.00243517 27.5991   326.49    22.4465   
13.5      5275.11   0.00243517 27.7693   326.319   22.4607   
13.6      5314.68   0.00243517 27.9419   326.147   22.4603   
13.7      5360.98   0.00243517 28.1207   325.968   22.4606   
13.8      5402.16   0.00243517 28.2958   325.793   22.4732   
13.9      5445.38   0.00243517 28.4656   325.623   22.4487   
14        5482.66   0.00243517 28.6381   325.451   22.4824   
14.1      5528.07   0.00243517 28.8081   325.281   22.4784   
14.2      5570.32   0.00243517 28.9769   325.112   22.4468   
14.3      5613.36   0.00243517 29.1459   324.943   22.4655   
14.4      5656.25   0.00243517 29.3027   324.786   22.4647   
14.5      5693.63   0.00243517 29.4609   324.628   22.4683   
14.6      5734.19   0.00243517 29.6245   324.464   22.4485   
14.7      5778.48   0.00243517 29.7853   324.303   22.4584   
14.8      5822.59   0.00243517 29.949    324.14    22.4507   
14.9      5860.34   0.00243517 30.1056   323.983   22.4554   
15        5896.68   0.00243517 30.265    323.824   22.4676   
15.1      5941.33   0.00243517 30.4298   323.659   22.4629   
15.2      5985.23   0.00243517 30.5873   323.501   22.46     
15.3      6028.78   0.00243517 30.7441   323.345   22.4595   
15.4      6067.15   0.00243517 30.8896   323.199   22.4644   
15.5      6103.93   0.00243517 31.0435   323.045   22.467    
15.6      6145.7    0.00243517 31.1952   322.894   22.4532   
15.7      6182.24   0.00243517 31.3404   322.748   22.4552   
15.8      6224.05   0.00243517 31.4886   322.6     22.457    
15.9      6263.15   0.00243517 31.6248   322.464   22.4604   
16        6299.87   0.00243517 31.7674   322.321   22.4545   
16.1      6339.73   0.00243517 31.9134   322.175   22.4561   
16.2      6376.01   0.00243517 32.0605   322.028   22.4675   
16.3      6413.02   0.00243517 32.2154   321.873   22.47     
16.4      6455.2    0.00243517 32.3702   321.719   22.4634   
16.5      6493.97   0.00243517 32.5222   321.567   22.4523   
16.6      6534.9    0.00243517 32.6776   321.411   22.4561   
16.7      6586.15   0.00243517 32.8324   321.256   22.4543   
16.8      6620.67   0.00243517 32.9759   321.113   22.4715   
16.9      6655.15   0.00243517 33.1235   320.965   22.4662   
17        6701.68   0.00243517 33.2821   320.807   22.4642   
17.1      6745.95   0.00243517 33.4265   320.662   22.4715   
17.2      6778.16   0.00243517 33.5658   320.523   22.4586   
17.3      6821.51   0.00243517 33.7163   320.372   22.4571   
17.4      6860.8    0.00243517 33.8645   320.224   22.4582   
17.5      6899.51   0.00243517 34.015    320.074   22.4662   
17.6      6943.11   0.00243517 34.1635   319.925   22.458    
17.7      6983.38   0.00243517 34.3059   319.783   22.4753   
17.8      7018.75   0.00243517 34.4404   319.648   22.4697   
17.9      7055.32   0.00243517 34.586    319.503   22.4501   
18        7098.5    0.00243517 34.7347   319.354   22.4607   
18.1      7133.77   0.00243517 34.8808   319.208   22.4517   
18.2      7176.5    0.00243517 35.0342   319.055   22.4527   
18.3      7219.73   0.00243517 35.1782   318.911   22.4667   
18.4      7261.53   0.00243517 35.3265   318.762   22.4501   
18.5      7299.54   0.00243517 35.471    318.618   22.4604   
18.6      7338.01   0.00243517 35.6132   318.476   22.467    
18.7      7381.92   0.00243517 35.7585   318.33    22.4644   
18.8      7415.91   0.00243517 35.897    318.192   22.4642   
18.9      7461.07   0.00243517 36.0383   318.05    22.4604   
19        7496.64   0.00243517 36.1775   317.911   22.4563   
19.1      7532.44   0.00243517 36.319    317.77    22.4603   
19.2      7577.59   0.00243517 36.4692   317.62    22.4632   
19.3      7612.39   0.00243517 36.6054   317.483   22.4569   
19.4      7655.25   0.00243517 36.7518   317.337   22.4665   
19.5      7693.25   0.00243517 36.8962   317.193   22.4656   
19.6      7732.27   0.00243517 37.0423   317.046   22.4572   
19.7      7778.69   0.00243517 37.1853   316.903   22.4783   
19.8      7809.48   0.00243517 37.317    316.772   22.4876   
19.9      7849.27   0.00243517 37.4596   316.629   22.4661   
20        7890.07   0.00243517 37.6036   316.485   22.4523   
20.1      7933.18   0.00243517 37.7449   316.344   22.452    
20.2      7970.82   0.00243517 37.8853   316.203   22.4674   
20.3      8011.9    0.00243517 38.0294   316.059   22.4579   
20.4      8049.19   0.00243517 38.1671   315.922   22.471    
20.5      8089.97   0.00243517 38.308    315.781   22.4763   
20.6      8131.64   0.00243517 38.4532   315.636   22.4563   
20.7      8170.2    0.00243517 38.5932   315.496   22.4664   
20.8      8211.86   0.00243517 38.7333   315.355   22.4576   
20.9      8249.38   0.00243517 38.8768   315.212   22.4571   
21        8287.95   0.00243517 39.0207   315.068   22.463    
21.1      8330.35   0.00243517 39.1692   314.92    22.4678   
21.2      8373.38   0.00243517 39.3131   314.776   22.4894   
21.3      8411.81   0.00243517 39.4543   314.634   22.4674   
21.4      8457.27   0.00243517 39.6019   314.487   22.4481   
21.5      8499.75   0.00243517 39.739    314.35    22.467    
21.6      8535.64   0.00243517 39.8719   314.217   22.4606   
21.7      8569.85   0.00243517 40.0056   314.083   22.4587   
21.8      8608.57   0.00243517 40.152    313.937   22.4529   
21.9      8651.88   0.00243517 40.2975   313.791   22.4642   
22        8694.25   0.00243517 40.4414   313.647   22.4629   
22.1      8733.4    0.00243517 40.584    313.505   22.4613   
22.2      8771.8    0.00243517 40.7219   313.367   22.4582   
22.3      8814.44   0.00243517 40.8698   313.219   22.4509   
22.4      8858.45   0.00243517 41.0117   313.077   22.4618   
22.5      8893.64   0.00243517 41.1441   312.945   22.4708   
22.6      8932.35   0.00243517 41.288    312.801   22.4569   
22.7      8975.59   0.00243517 41.4313   312.657   22.457    
22.8      9013.38   0.00243517 41.566    312.523   22.4567   
22.9      9053.66   0.00243517 41.7053   312.383   22.4851   
23        9097.14   0.00243517 41.8478   312.241   22.4622   
23.1      9135.81   0.00243517 41.9855   312.103   22.4573   
23.2      9173.32   0.00243517 42.1185   311.97    22.4603   
23.3      9212.03   0.00243517 42.2583   311.83    22.4551   
23.4      9251.44   0.00243517 42.3984   311.69    22.4549   
23.5      9295.66   0.00243517 42.542    311.547   22.4677   
23.6      9335.62   0.00243517 42.6799   311.409   22.459    
23.7      9375.48   0.00243517 42.8114   311.277   22.4458   
23.8      9410.64   0.00243517 42.9407   311.148   22.4697   
23.9      9451.63   0.00243517 43.0668   311.022   22.463    
24        9494.28   0.00243517 43.2006   310.888   22.4617   
24.1      9520.72   0.00243517 43.3314   310.757   22.4469   
24.2      9565.47   0.00243517 43.4729   310.616   22.4589   
24.3      9603.61   0.00243517 43.606    310.483   22.4609   
24.4      9642.64   0.00243517 43.745    310.344   22.4537   
24.5      9687.62   0.00243517 43.8844   310.204   22.4596   
24.6      9727.65   0.00243517 44.0221   310.067   22.4539   
24.7      9766.78   0.00243517 44.1603   309.928   22.4801   
24.8      9808.08   0.00243517 44.305    309.784   22.4605   
24.9      9851.04   0.00243517 44.447    309.642   22.4488   
25        9887.86   0.00243517 44.5837   309.505   22.4614   
25.1      9932.7    0.00243517 44.7216   309.367   22.453    
25.2      9972.33   0.00243517 44.8591   309.23    22.4627   
25.3      10009     0.00243517 45.0009   309.088   22.4595   
25.4      10053     0.00243517 45.1443   308.944   22.467    
25.5      10092.7   0.00243517 45.2823   308.806   22.4715   
25.6      10133.4   0.00243517 45.4163   308.672   22.4703   
25.7      10172     0.00243517 45.5546   308.534   22.4745   
25.8      10215.7   0.00243517 45.6928   308.396   22.4581   
25.9      10254.1   0.00243517 45.8315   308.257   22.4647   
26        10296.7   0.00243517 45.9712   308.118   22.4564   
26.1      10337.3   0.00243517 46.1071   307.982   22.471    
26.2      10373.3   0.00243517 46.246    307.843   22.463    
26.3      10417.9   0.00243517 46.3869   307.702   22.4688   
26.4      10455.4   0.00243517 46.5252   307.564   22.4814   
26.5      10499.7   0.00243517 46.6675   307.421   22.4555   
26.6      10534.2   0.00243517 46.8015   307.287   22.4644   
26.7      10578.4   0.00243517 46.9436   307.145   22.456    
26.8      10628.1   0.00243517 47.0888   307       22.4601   
26.9      10662.6   0.00243517 47.2154   306.873   22.4599   
27        10700.9   0.00243517 47.3546   306.734   22.4789   
27.1      10741.7   0.00243517 47.4918   306.597   22.4787   
27.2      10782.2   0.00243517 47.6316   306.457   22.4576   
27.3      10823.7   0.00243517 47.7665   306.322   22.4719   
27.4      10858.6   0.00243508 47.8947   306.194   22.4629   
27.5      10898.2   0.00243526 48.0362   306.053   22.4687   
27.6      10939.9   0.00243493 48.1707   305.918   22.4823   
27.7      10985.3   0.00243548 48.3127   305.776   22.4534   
27.8      11027.1   0.0024346 48.4534   305.635   22.4549   
27.9      11063.6   0.00243597 48.5955   305.493   22.45     
28        11109.7   0.00243385 48.7409   305.348   22.4521   
28.1      11151.8   0.00243729 48.8754   305.213   22.4573   
28.2      11187     0.00243076 49.0078   305.081   22.4601   
28.3      11230.9   0.00245365 49.1451   304.944   22.458    
28.4      11268.9   0.00254839 49.2784   304.81    22.4613   
28.5      11311.2   0.00255052 49.4207   304.668   22.4583   
28.6      11352.4   0.00255176 49.5577   304.531   22.4601   
28.7      11388.1   0.00255074 49.6938   304.395   22.4586   
28.8      11429.7   0.00255143 49.8295   304.259   22.4589   
28.9      11468.7   0.002551  49.9588   304.13    22.4653   
29        11510.7   0.00255125 50.0857   304.003   22.4578   
29.1      11546.4   0.00255112 50.2096   303.879   22.502    
29.2      11580.5   0.00255117 50.3398   303.749   22.4958   
29.3      11621.5   0.00255117 50.4769   303.612   22.4528   
29.4      11662.6   0.00255113 50.62     303.469   22.4591   
29.5      11707.6   0.00255113 50.7547   303.334   22.4574   
29.6      11747.1   0.00255113 50.8872   303.202   22.4622   
29.7      11782.1   0.00255113 51.021    303.068   22.4732   
29.8      11822.8   0.00255113 51.15     302.939   22.4852   
29.9      11860.5   0.00255113 51.2721   302.817   22.4626   
30        11895.8   0.00255113 51.3944   302.694   22.4624   
30.1      11932.4   0.00255113 51.5281   302.561   22.4633   
30.2      11976.1   0.00255113 51.6621   302.427   22.4509   
30.3      12018.2   0.00255113 51.7942   302.295   22.4597   
30.4      12059.9   0.00255113 51.9259   302.163   22.4553   
30.5      12095.2   0.00255113 52.0539   302.035   22.4657   
30.6      12129.4   0.00255113 52.1875   301.901   22.4781   
30.7      12176.8   0.00255113 52.326    301.763   22.4548   
30.8      12216.8   0.00255113 52.4547   301.634   22.4612   
30.9      12252.3   0.00255113 52.5878   301.501   22.4592   
31        12292.9   0.00255113 52.7219   301.367   22.4575   
31.1      12331     0.00255113 52.853    301.236   22.4562   
31.2      12374.1   0.00255113 52.9913   301.097   22.4536   
31.3      12412.4   0.00255113 53.1265   300.962   22.4608   
31.4      12456.7   0.00255113 53.2625   300.826   22.4541   
31.5      12495.3   0.00255113 53.3927   300.696   22.4569   
31.6      12533.1   0.00255113 53.5256   300.563   22.4536   
31.7      12577.2   0.00255113 53.6574   300.431   22.4544   
31.8      12615.8   0.00255113 53.784    300.305   22.4549   
31.9      12653.6   0.00255113 53.9078   300.181   22.4609   
32        12687.5   0.00255113 54.035    300.054   22.4572   
32.1      12725.8   0.00255113 54.1703   299.918   22.4553   
32.2      12770.6   0.00255113 54.3069   299.782   22.4845   
32.3      12811.7   0.00255113 54.4345   299.654   22.4625   
32.4      12845.2   0.00255113 54.5642   299.525   22.4488   
32.5      12885.5   0.00255113 54.6987   299.39    22.461    
32.6      12925.2   0.00255113 54.8358   299.253   22.4608   
32.7      12968.2   0.00255113 54.9756   299.113   22.4604   
32.8      13007.5   0.00255113 55.1105   298.978   22.4511   
32.9      13042     0.00255113 55.2389   298.85    22.4761   
33        13084.9   0.00255113 55.3728   298.716   22.4672   
33.1      13126     0.00255113 55.5125   298.576   22.4503   
33.2      13166.4   0.00255113 55.6483   298.44    22.4569   
33.3      13211     0.00255113 55.7837   298.305   22.4568   
33.4      13248.5   0.00255113 55.9115   298.177   22.4456   
33.5      13287.1   0.00255113 56.046    298.043   22.4462   
33.6      13329.6   0.00255113 56.1809   297.908   22.4624   
33.7      13376.2   0.00255113 56.3168   297.772   22.4479   
33.8      13397.4   0.00255113 56.3866   297.702   22.4704   
33.9      13407.1   0.00255113 56.4273   297.661   22.4615   
34        13412.3   0.00255113 56.4372   297.652   22.4611   
34.1      13391     0.00255113 56.3813   297.707   22.4826   
34.2      13361     0.00255113 56.3094   297.779   22.4512   
34.3      13330.8   0.00255113 56.2345   297.854   22.4572   
34.4      13302.2   0.00255113 56.1612   297.928   22.4585   
34.5      13270.8   0.00255113 56.0816   298.007   22.455    
34.6      13238.6   0.00255113 56.0003   298.088   22.4639   
34.7      13209.2   0.00255113 55.9098   298.179   22.4566   
34.8      13169.1   0.00255113 55.804    298.285   22.4555   
34.9      13130.3   0.00255113 55.696    298.393   22.4546   
35        13093.8   0.00255113 55.5846   298.504   22.465    
35.1      13047.9   0.00255113 55.4659   298.623   22.4593   
35.2      13013.3   0.00255113 55.3628   298.726   22.4537   
35.3      12975.2   0.00255113 55.2429   298.846   22.4435   
35.4      12929.8   0.00255113 55.1199   298.969   22.4652   
35.5      12884     0.00255113 54.9954   299.093   22.4507   
35.6      12848.1   0.00255113 54.8878   299.201   22.4625   
35.7      12811.9   0.00255113 54.7782   299.311   22.4889   
35.8      12764.6   0.00255113 54.6564   299.432   22.4583   
35.9      12728.5   0.00255113 54.5463   299.542   22.456    
36        12692.6   0.00255113 54.4304   299.658   22.4646   
36.1      12649.6   0.00255113 54.3099   299.779   22.468    
36.2      12609.7   0.00255113 54.1893   299.899   22.4523   
36.3      12564.3   0.00255113 54.0693   300.019   22.4467   
36.4      12526.3   0.00255113 53.956    300.133   22.4558   
36.5      12485.8   0.00255113 53.8374   300.251   22.4588   
36.6      12446.9   0.00255113 53.7148   300.374   22.455    
36.7      12405.7   0.00255113 53.5978   300.491   22.4573   
36.8      12366.9   0.00255113 53.4831   300.606   22.4583   
36.9      12329.1   0.00255113 53.3714   300.717   22.459    
37        12289.8   0.00255113 53.2583   300.83    22.4642   
37.1      12254.7   0.00255113 53.1447   300.944   22.4635   
37.2      12213.1   0.00255113 53.0216   301.067   22.4605   
37.3      12174.3   0.00255113 52.9011   301.188   22.4681   
37.4      12131.6   0.00255113 52.7776   301.311   22.4673   
37.5      12091.7   0.00255113 52.6553   301.433   22.4652   
37.6      12053.5   0.00255113 52.5345   301.554   22.46     
37.7      12012.8   0.00255113 52.4059   301.683   22.4527   
37.8      11971     0.00255113 52.2783   301.81    22.4553   
37.9      11928.8   0.00255113 52.1483   301.94    22.4594   
38        11886.9   0.00255113 52.0213   302.067   22.4774   
38.1      11842.5   0.00255113 51.891    302.198   22.4644   
38.2      11799.6   0.00255113 51.7619   302.327   22.4563   
38.3      11763.9   0.00255113 51.6424   302.446   22.4607   
38.4      11723.1   0.00255113 51.513    302.576   22.4496   
38.5      11679.9   0.00255113 51.3855   302.703   22.458    
38.6      11641.9   0.00255113 51.265    302.824   22.461    
38.7      11597.1   0.00255113 51.1326   302.956   22.4551   
38.8      11559.9   0.00255113 51.0154   303.073   22.4557   
38.9      11523.2   0.00255113 50.9015   303.187   22.4617   
39        11485.1   0.00255113 50.7802   303.309   22.4541   
39.1      11448.9   0.00255113 50.6608   303.428   22.4551   
39.2      11404.9   0.00255113 50.5285   303.56    22.4556   
39.3      11368.2   0.00255113 50.4035   303.685   22.4638   
39.4      11323.9   0.00255113 50.2738   303.815   22.4661   
39.5      11285.5   0.00255113 50.1408   303.948   22.451    
39.6      11244.2   0.00255113 50.0134   304.075   22.4552   
39.7      11200.4   0.00255113 49.8833   304.205   22.4499   
39.8      11167.6   0.00255113 49.7641   304.325   22.4509   
39.9      11118.8   0.00255113 49.6364   304.452   22.4525   
40        11087.2   0.00255113 49.5213   304.567   22.453    
40.1      11052.4   0.00255113 49.4039   304.685   22.4529   
40.2      11012     0.00255113 49.2714   304.817   22.4575   
40.3      10970.9   0.00255113 49.1388   304.95    22.4676   
40.4      10928.7   0.00255113 49.0048   305.084   22.4661   
40.5      10887     0.00255113 48.8757   305.213   22.46     
40.6      10848.6   0.00255113 48.7492   305.34    22.4462   
40.7      10809.9   0.00255113 48.6253   305.463   22.45     
40.8      10764     0.00255113 48.4933   305.595   22.4526   
40.9      10727.7   0.00255113 48.3668   305.722   22.4582   
41        10689.2   0.00255113 48.241    305.848   22.4547   
41.1      10646.5   0.00255113 48.0994   305.989   22.4558   
41.2      10598.7   0.00255113 47.9585   306.13    22.4628   
41.3      10562.8   0.00255113 47.8267   306.262   22.4517   
41.4      10521.8   0.00255113 47.6961   306.393   22.4544   
41.5      10476.4   0.00255113 47.5661   306.523   22.4492   
41.6      10442.4   0.00255113 47.4355   306.653   22.4531   
41.7      10401.3   0.00255113 47.3052   306.784   22.4614   
41.8      10363.1   0.00255113 47.1737   306.915   22.4818   
41.9      10323.4   0.00255113 47.0476   307.041   22.4781   
42        10283.1   0.00255113 46.9252   307.164   22.4553   
42.1      10248.7   0.00255113 46.8049   307.284   22.459    
42.2      10208.6   0.00255113 46.6782   307.411   22.456    
42.3      10171.5   0.00255113 46.5458   307.543   22.4538   
42.4      10129.7   0.00255113 46.4154   307.673   22.4445   
42.5      10091.5   0.00255113 46.2779   307.811   22.4578   
42.6      10045.4   0.00255113 46.1413   307.947   22.4534   
42.7      10000.7   0.00255113 46.0065   308.082   22.457    
42.8      9967.64   0.00255113 45.8792   308.21    22.4892   
42.9      9927.79   0.00255113 45.7456   308.343   22.4568   
43        9886.33   0.00255113 45.6094   308.479   22.4594   
43.1      9838.79   0.00255113 45.4675   308.621   22.4593   
43.2      9796.45   0.00255113 45.335    308.754   22.4489   
43.3      9762.24   0.00255113 45.2057   308.883   22.4546   
43.4      9723.89   0.00255113 45.0705   309.018   22.4511   
43.5      9681.78   0.00255113 44.935    309.154   22.4574   
43.6      9640.03   0.00255113 44.797    309.292   22.4591   
43.7      9599.73   0.00255113 44.6654   309.423   22.4592   
43.8      9558.89   0.00255113 44.5308   309.558   22.4566   
43.9      9519.29   0.00255113 44.3926   309.696   22.4655   
44        9476.9    0.00255113 44.2474   309.841   22.459    
44.1      9436.25   0.00255113 44.1041   309.985   22.4562   
44.2      9386.88   0.00255113 43.9602   310.129   22.4538   
44.3      9343.04   0.00255113 43.8157   310.273   22.4547   
44.4      9306.86   0.00255113 43.6829   310.406   22.448    
44.5      9267.93   0.00255113 43.5497   310.539   22.4623   
44.6      9232.03   0.00255113 43.4211   310.668   22.4489   
44.7      9186.4    0.00255113 43.2838   310.805   22.4444   
44.8      9145.77   0.00255113 43.1414   310.947   22.4568   
44.9      9106.46   0.00255113 43.0001   311.089   22.4609   
45        9067.61   0.00255113 42.859    311.23    22.4519   
45.1      9017.68   0.00255113 42.7126   311.376   22.4654   
45.2      8977.67   0.00255113 42.572    311.517   22.4695   
45.3      8942.3    0.00255113 42.4371   311.652   22.455    
45.4      8900.94   0.00255113 42.3042   311.785   22.4566   
45.5      8858.68   0.00255113 42.1648   311.924   22.4508   
45.6      8820.41   0.00255113 42.028    312.061   22.4533   
45.7      8780.83   0.00255113 41.8888   312.2     22.4541   
45.8      8735.07   0.00255113 41.7436   312.345   22.4586   
45.9      8698.73   0.00255113 41.6081   312.481   22.4604   
46        8657.53   0.00255113 41.4746   312.614   22.4504   
46.1      8621.11   0.00255113 41.3464   312.742   22.4593   
46.2      8586.98   0.00255113 41.2129   312.876   22.4632   
46.3      8540.74   0.00255113 41.0742   313.015   22.4522   
46.4      8500.71   0.00255113 40.9312   313.158   22.4576   
46.5      8458.25   0.00255113 40.7912   313.298   22.4542   
46.6      8422.6    0.00255113 40.6573   313.431   22.4566   
46.7      8387.67   0.00255113 40.5176   313.571   22.4592   
46.8      8339.9    0.00255113 40.3696   313.719   22.4509   
46.9      8299.78   0.00255113 40.2298   313.859   22.4565   
47        8261.82   0.00255113 40.0879   314.001   22.458    
47.1      8221.39   0.00255113 39.9459   314.143   22.4554   
47.2      8171.66   0.00255113 39.796    314.293   22.4497   
47.3      8134.14   0.00255113 39.6532   314.436   22.4517   
47.4      8098.79   0.00255113 39.5204   314.568   22.4516   
47.5      8052.64   0.00255113 39.3702   314.719   22.4542   
47.6      8010.24   0.00255113 39.2241   314.865   22.4511   
47.7      7971.79   0.00255113 39.0881   315.001   22.4525   
47.8      7939.62   0.00255113 38.9536   315.135   22.4506   
47.9      7892.87   0.00255113 38.8086   315.28    22.4445   
48        7846.91   0.00255113 38.6593   315.429   22.4651   
48.1      7811.03   0.00255113 38.5141   315.575   22.4589   
48.2      7769.39   0.00255113 38.3618   315.727   22.4572   
48.3      7721.82   0.00255113 38.2073   315.881   22.4515   
48.4      7684.2    0.00255113 38.0584   316.03    22.4524   
48.5      7648.29   0.00255113 37.9214   316.167   22.4412   
48.6      7603.22   0.00255113 37.774    316.315   22.4599   
48.7      7558.44   0.00255113 37.6276   316.461   22.4691   
48.8      7520.63   0.00255113 37.4849   316.604   22.4535   
48.9      7482.86   0.00255113 37.3417   316.747   22.4575   
49        7443.99   0.00255113 37.2018   316.887   22.4481   
49.1      7402.39   0.00255113 37.0636   317.025   22.4554   
49.2      7369.59   0.00255113 36.9303   317.158   22.4505   
49.3      7328.55   0.00255113 36.7946   317.294   22.4514   
49.4      7290.9    0.00255113 36.6482   317.441   22.4533   
49.5      7252.67   0.00255113 36.5072   317.582   22.4567   
49.6      7208.7    0.00255113 36.3599   317.729   22.4564   
49.7      7169.79   0.00255113 36.211    317.878   22.4464   
49.8      7125.57   0.00255113 36.0636   318.025   22.4592   
49.9      7088.48   0.00255113 35.9111   318.178   22.4534   
50        7046.99   0.00255113 35.763    318.326   22.4548   
50.1      7005.38   0.00255113 35.6093   318.479   22.463    
50.2      6960.59   0.00255113 35.4593   318.629   22.4487   
50.3      6916.69   0.00255113 35.3065   318.782   22.4564   
50.4      6877.34   0.00255113 35.1634   318.925   22.4527   
50.5      6845.83   0.00255113 35.0212   319.068   22.444    
50.6      6805.11   0.00255113 34.8667   319.222   22.4515   
50.7      6757.31   0.00255113 34.7125   319.376   22.4553   
50.8      6715.78   0.00255113 34.5609   319.528   22.4552   
50.9      6675.03   0.00255113 34.4072   319.682   22.4575   
51        6639.32   0.00255113 34.2648   319.824   22.4535   
51.1      6600.56   0.00255113 34.1281   319.961   22.4565   
51.2      6566.42   0.00255113 33.9874   320.101   22.4566   
51.3      6524.7    0.00255113 33.8404   320.248   22.4505   
51.4      6485.6    0.00255113 33.6866   320.402   22.4594   
51.5      6443.51   0.00255113 33.5358   320.553   22.4575   
51.6      6400.95   0.00255113 33.3844   320.704   22.4532   
51.7      6361.02   0.00255113 33.2382   320.851   22.4555   
51.8      6322.71   0.00255113 33.0905   320.998   22.4506   
51.9      6283.48   0.00255113 32.946    321.143   22.4635   
52        6245.69   0.00255113 32.7991   321.29    22.455    
52.1      6207.69   0.00255113 32.6416   321.447   22.4488   
52.2      6162.28   0.00255113 32.4871   321.602   22.462    
52.3      6119.89   0.00255113 32.3325   321.756   22.456    
52.4      6080.77   0.00255113 32.1796   321.909   22.4597   
52.5      6042.49   0.00255113 32.0257   322.063   22.4517   
52.6      5999.5    0.00255113 31.8752   322.214   22.4555   
52.7      5963.14   0.00255113 31.7244   322.364   22.4573   
52.8      5922.47   0.00255113 31.5729   322.516   22.4591   
52.9      5884.98   0.00255113 31.4144   322.674   22.4607   
53        5842.03   0.00255122 31.2557   322.833   22.4538   
53.1      5801.05   0.00255105 31.0931   322.996   22.4525   
53.2      5758.5    0.00255136 30.9301   323.159   22.46     
53.3      5712.41   0.00255083 30.7639   323.325   22.4604   
53.4      5674.76   0.00255167 30.6092   323.48    22.4555   
53.5      5631.74   0.00255037 30.4525   323.636   22.453    
53.6      5591.27   0.00255239 30.2905   323.798   22.4559   
53.7      5556.73   0.0025491 30.1365   323.952   22.4547   
53.8      5510.41   0.00255537 29.9712   324.118   22.454    
53.9      5474.59   0.00253317 29.8098   324.279   22.4566   
54        5429.74   0.00243844 29.6509   324.438   22.4491   
54.1      5389.89   0.00243561 29.4886   324.6     22.4583   
54.2      5351.58   0.00243464 29.3335   324.755   22.453    
54.3      5311.64   0.0024355 29.1706   324.918   22.4506   
54.4      5274.39   0.00243491 29.0108   325.078   22.4604   
54.5      5233.82   0.00243528 28.841    325.248   22.4623   
54.6      5194.1    0.00243507 28.6763   325.412   22.4547   
54.7      5151.44   0.00243517 28.5093   325.579   22.4575   
54.8      5107.93   0.00243514 28.3379   325.751   22.458    
54.9      5076.59   0.00243513 28.1777   325.911   22.4541   
55        5043.58   0.00243517 28.0136   326.075   22.4585   
55.1      4996.9    0.00243517 27.8343   326.254   22.4418   
55.2      4959.39   0.00243517 27.6568   326.432   22.4509   
55.3      4918.97   0.00243517 27.478    326.611   22.4517   
55.4      4876.73   0.00243517 27.301    326.788   22.4561   
55.5      4838.52   0.00243517 27.1231   326.966   22.4606   
55.6      4795.61   0.00243517 26.9419   327.147   22.4623   
55.7      4759.9    0.00243517 26.7651   327.324   22.4779   
55.8      4722.92   0.00243517 26.5933   327.495   22.4638   
55.9      4679.33   0.00243517 26.4127   327.676   22.4513   
56        4638.22   0.00243517 26.2258   327.863   22.4548   
56.1      4595.9    0.00243517 26.0458   328.043   22.4466   
56.2      4561.35   0.00243517 25.8629   328.226   22.4444   
56.3      4517.57   0.00243517 25.6799   328.409   22.4557   
56.4      4479.99   0.00243517 25.4946   328.594   22.4504   
56.5      4437.07   0.00243517 25.309    328.78    22.4522   
56.6      4407.68   0.00243517 25.1258   328.963   22.4614   
56.7      4364.24   0.00243517 24.9374   329.151   22.4537   
56.8      4333.39   0.00243517 24.7475   329.341   22.4537   
56.9      4295.13   0.00243517 24.5528   329.536   22.4471   
57        4248.22   0.00243517 24.3447   329.744   22.4531   
57.1      4208.66   0.00243517 24.1414   329.947   22.4565   
57.2      4169.78   0.00243517 23.9391   330.15    22.4578   
57.3      4128.55   0.00243517 23.7242   330.365   22.461    
57.4      4079.49   0.00243517 23.497    330.592   22.4519   
57.5      4043.24   0.00243517 23.2825   330.806   22.4548   
57.6      3999.39   0.00243517 23.0772   331.012   22.4533   
57.7      3953.64   0.00243517 22.8636   331.225   22.4564   
57.8      3915.38   0.00243517 22.6527   331.436   22.4612   
57.9      3870.89   0.00243517 22.4475   331.641   22.4558   
58        3830.27   0.00243517 22.238    331.851   22.4572   
58.1      3793.3    0.00243517 22.0345   332.054   22.4559   
58.2      3748.8    0.00243517 21.8273   332.261   22.4643   
58.3      3711.33   0.00243517 21.6242   332.465   22.4506   
58.4      3671.64   0.00243517 21.4272   332.662   22.4616   
58.5      3628.52   0.00243517 21.2267   332.862   22.4762   
58.6      3594.95   0.00243517 21.0257   333.063   22.45     
58.7      3557.41   0.00243517 20.822    333.267   22.4599   
58.8      3509.11   0.00243517 20.6126   333.476   22.4514   
58.9      3470.54   0.00243517 20.4      333.689   22.454    
59        3426.09   0.00243517 20.1966   333.892   22.4547   
59.1      3388.08   0.00243517 19.9951   334.094   22.4559   
59.2      3349.54   0.00243517 19.7958   334.293   22.4542   
59.3      3310.11   0.00243517 19.5939   334.495   22.4478   
59.4      3269.97   0.00243517 19.3966   334.692   22.4568   
59.5      3229.71   0.00243517 19.1929   334.896   22.4623   
59.6      3193.44   0.00243517 18.993    335.096   22.4491   
59.7      3154.9    0.00243517 18.7941   335.295   22.4558   
59.8      3113.1    0.00243517 18.5906   335.498   22.4517   
59.9      3073.07   0.00243517 18.3801   335.709   22.4608   
60        3028.95   0.00243517 18.1729   335.916   22.4634   
60.1      2990.47   0.00243517 17.9667   336.122   22.4634   
60.2      2949.6    0.00243517 17.7589   336.33    22.4499   
60.3      2911.36   0.00243517 17.5562   336.533   22.4557   
60.4      2865.35   0.00243517 17.3445   336.744   22.4535   
60.5      2826.78   0.00243517 17.1354   336.953   22.4597   
60.6      2791.91   0.00243517 16.9364   337.152   22.4542   
60.7      2752.23   0.00243517 16.7332   337.356   22.4601   
60.8      2711.79   0.00243517 16.5207   337.568   22.4873   
60.9      2666.53   0.00243517 16.311    337.778   22.4536   
61        2631.94   0.00243517 16.1016   337.987   22.4654   
61.1      2587.46   0.00243517 15.8902   338.199   22.4634   
61.2      2545.13   0.00243517 15.677    338.412   22.484    
61.3      2504.67   0.00243517 15.4631   338.626   22.4812   
61.4      2469.16   0.00243517 15.2567   338.832   22.4602   
61.5      2424.01   0.00243517 15.0499   339.039   22.4555   
61.6      2382.63   0.00243517 14.8363   339.252   22.4507   
61.7      2345.55   0.00243517 14.6304   339.458   22.4507   
61.8      2302.64   0.00243517 14.4183   339.67    22.4493   
61.9      2265.89   0.00243517 14.2021   339.887   22.4427   
62        2220.5    0.00243517 13.9924   340.096   22.4493   
62.1      2180.06   0.00243517 13.7762   340.313   22.4564   
62.2      2145.31   0.00243517 13.5699   340.519   22.4501   
62.3      2102.82   0.00243517 13.3563   340.732   22.4508   
62.4      2061.21   0.00243517 13.1467   340.942   22.4529   
62.5      2021.49   0.00243517 12.9365   341.152   22.4528   
62.6      1981.2    0.00243517 12.7235   341.365   22.4553   
62.7      1948.56   0.00243517 12.5132   341.576   22.4602   
62.8      1904.21   0.00243517 12.2952   341.794   22.4643   
62.9      1857      0.00243517 12.0734   342.015   22.466    
63        1814.24   0.00243517 11.8568   342.232   22.4501   
63.1      1778.65   0.00243517 11.6434   342.445   22.4591   
63.2      1738.16   0.00243517 11.4379   342.651   22.4628   
63.3      1700.13   0.00243517 11.2303   342.858   22.4502   
63.4      1666.47   0.00243517 11.0344   343.054   22.4584   
63.5      1626.68   0.00243517 10.8384   343.25    22.457    
63.6      1593.22   0.00243517 10.6289   343.46    22.4527   
63.7      1552.56   0.00243517 10.42     343.669   22.4559   
63.8      1510.11   0.00243517 10.2029   343.886   22.4618   
63.9      1470.38   0.00243517 9.98534   344.103   22.4505   
64        1436.29   0.00243517 9.77287   344.316   22.4558   
64.1      1391.65   0.00243517 9.56314   344.526   22.4525   
64.2      1355.14   0.00243517 9.34224   344.747   22.4707   
64.3      1317.6    0.00243517 9.12386   344.965   22.4493   
64.4      1276.36   0.00243517 8.90802   345.181   22.4484   
64.5      1231.59   0.00243517 8.67902   345.41    22.458    
64.6      1194.67   0.00243517 8.45474   345.634   22.4538   
64.7      1156.49   0.00243517 8.23453   345.854   22.4606   
64.8      1115.87   0.00243517 8.01217   346.077   22.4609   
64.9      1067.58   0.00243517 7.78918   346.3     22.4616   
65        1035.56   0.00243517 7.56272   346.526   22.4522   
65.1      999.183   0.00243517 7.3519    346.737   22.46     
65.2      958.596   0.00243529 7.12154   346.967   22.4699   
65.3      917.126   0.002435  6.88918   347.2     22.4567   
65.4      878.13    0.00243557 6.66749   347.421   22.4543   
65.5      842.328   0.00243458 6.44914   347.64    22.4541   
65.6      797.838   0.0024362 6.22664   347.862   22.4509   
65.7      764.351   0.00243364 6.00215   348.087   22.4561   
65.8      723.145   0.00243763 5.77655   348.312   22.4588   
65.9      682.942   0.00243122 5.54737   348.541   22.4595   
66        646.19    0.00244292 5.31322   348.776   22.4538   
66.1      607.353   0.00236443 5.08106   349.008   22.462    
66.2      563.485   0.00231146 4.84814   349.241   22.4533   
66.3      523.458   0.00232316 4.61051   349.478   22.4739   
66.4      490.06    0.00231675 4.38211   349.707   22.463    
66.5      452.278   0.00232073 4.14247   349.946   22.451    
66.6      411.611   0.00231818 3.89867   350.19    22.4609   
66.7      377.474   0.0023198 3.65426   350.434   22.4754   
66.8      336.437   0.00231881 3.40483   350.684   22.4542   
66.9      301.097   0.00231938 3.14578   350.943   22.4519   
67        263.964   0.00231909 2.88877   351.2     22.4628   
67.1      217.719   0.00231921 2.62479   351.464   22.4672   
67.2      184.624   0.00231921 2.34824   351.741   22.4502   
67.3      146.584   0.00231921 2.07793   352.011   22.4563   
67.4      107.524   0.00231921 1.80644   352.282   22.4474   
67.5      72.2897   0.00231921 1.53293   352.556   22.4589   
67.6      40.9877   0.00231921 1.25037   352.838   22.452    
67.7      15.1419   0.00231921 0.963489  353.125   22.4537   
67.8      -16.097   0.00231921 0.659521  353.429   22.4519   
67.9      -28.962   0.00231921 0.331833  353.757   22.4551   
68        -55.699   0.00231921 0.00113805 354.088   22.4509   

**END