**HEADER
RELEASE   Release of TYDEX-Format                 1.3
MEASID    Measurement ID                          cvert_0p5_02fz500_P00cam0_110256_03
SUPPLIER  Data Supplier                           ika-fka / SteiReP / friederichs
DATE      Date                                    30/01/20
CLCKTIME  Clocktime                               14:42

**COMMENTS
------------------------------------
Bridgestone Potenza S001 MO 245/50R18 100W DOT4918
Vertical tyre stiffness on flat surface at 0 deg camber
------------------------------------

**CONSTANTS
LOCATION  Location                      -         ika-fka, Aachen
MANUFACT  Tyre brand name               -         Bridgestone
IDENTITY  Commercial name               -         Potenza S001 MO
INFLPRES  Inflation Pressure            bar       0.5
TYREMASS  Tyre mass                     kg        11.95
OVALLDIA  Measured outside diameter     m         0.6992
NOMDIAME  Nominal diameter of tyre      m         0.7022
NOMWIDTH  Nominal section width of tyre m         0.245
ASPRATIO  Nominal aspect ratio          -         0.5
SPEEDSYM  Speed symbol                  -         W
LOADIND   Load index                    -         100
TYROTIN   Tyre rot. inertia about YC    kgm2      1.233
RIMDIAME  Nominal rim diameter          m         0.4572
RIMWIDTH  Rim width                     m         0.2032
RIMROTIN  Rim rotational inertia        kgm2      0.386
TESTRIG   Test rig                      -         Stiffness Tyre Test Rig
CURVTRSF  Curvature of track surface    1/m       0
TRCKSURF  Surface of Track              -         Korund P80
TRCKCOND  Condition of Track Surface    -         dry
SLIPANGL  Slip angle                    deg       0
INCLANGL  Inclination angle             deg       0
LONGVEL   Longitudinal velocity         m/s       0

**MEASURCHANNELS
RUNTIME   Running Time                  s         1         0         0
FZW       Vertical Force                N         1         0         0
INCLANGL  Inclination angle             deg       1         0         0
TYREDEFW  Tyre deflection               mm        1         0         0
DSTGRWHC  Dist. ground - WHL. centre    mm        1         0         0
TRDTEMP   Tread Surface Temperature     deg C     1         0         0

**MEASURDATA
0         -1.53769  0.000579801 -0.0410735 351.576   21.9368   
0.1       6.06197   0.000579801 0.161923  351.373   21.9547   
0.2       22.8251   0.000579801 0.36      351.175   21.9265   
0.3       36.9781   0.000579801 0.527592  351.007   21.9478   
0.4       47.4911   0.000579801 0.680603  350.854   21.9229   
0.5       57.8614   0.000579801 0.840141  350.695   21.9328   
0.6       62.0435   0.000579801 1.01492   350.52    21.9693   
0.7       80.3245   0.000579801 1.21062   350.324   21.9819   
0.8       98.4594   0.000579801 1.39648   350.138   21.9716   
0.9       110.428   0.000579801 1.589     349.946   21.9416   
1         120.321   0.000579801 1.81623   349.719   21.9247   
1.1       138.971   0.000579801 2.0648    349.47    21.9561   
1.2       155.084   0.000579801 2.35071   349.184   21.9819   
1.3       180.462   0.000579801 2.69097   348.844   21.9776   
1.4       209.327   0.000579801 3.0618    348.473   21.9487   
1.5       237.457   0.000579801 3.45942   348.076   21.9641   
1.6       269.787   0.000579801 3.87171   347.663   21.9305   
1.7       304.883   0.000579801 4.28291   347.252   21.9526   
1.8       337.09    0.000579801 4.69283   346.842   21.9854   
1.9       362.593   0.000579801 5.10346   346.431   21.9643   
2         398.527   0.000579801 5.5217    346.013   21.982    
2.1       427.741   0.000579801 5.93681   345.598   21.9632   
2.2       462.394   0.000579801 6.3487    345.186   21.9571   
2.3       500.975   0.000579801 6.74663   344.788   21.9863   
2.4       527.391   0.000579801 7.15805   344.377   21.9722   
2.5       562.258   0.000579801 7.57587   343.959   21.92     
2.6       595.292   0.000579801 7.98737   343.548   21.9502   
2.7       624.23    0.000579801 8.40168   343.133   21.964    
2.8       657.208   0.000579801 8.81401   342.721   21.9427   
2.9       693.308   0.000579801 9.21983   342.315   21.965    
3         723.841   0.000579801 9.62879   341.906   21.9344   
3.1       753.689   0.000579801 10.0462   341.489   21.962    
3.2       789.203   0.000579801 10.4598   341.075   21.9806   
3.3       821.629   0.000579801 10.8744   340.661   21.9919   
3.4       849.762   0.000579801 11.2911   340.244   21.9727   
3.5       888.643   0.000579801 11.704    339.831   21.9648   
3.6       921.229   0.000579801 12.1195   339.415   21.9536   
3.7       950.112   0.000579801 12.5374   338.998   21.9656   
3.8       983.179   0.000579801 12.952    338.583   21.9722   
3.9       1014.17   0.000579801 13.3654   338.17    21.9472   
4         1051.96   0.000579801 13.776    337.759   21.9628   
4.1       1080.98   0.000579801 14.1886   337.346   21.9636   
4.2       1117.29   0.000579801 14.6041   336.931   21.9739   
4.3       1152.55   0.000579801 15.0159   336.519   21.9414   
4.4       1187.02   0.000579801 15.4343   336.101   21.9369   
4.5       1215.38   0.000579801 15.845    335.69    21.9094   
4.6       1247.27   0.000579801 16.261    335.274   21.9707   
4.7       1281.38   0.000579801 16.6756   334.859   21.9943   
4.8       1317.36   0.000579801 17.0803   334.455   21.9695   
4.9       1351.17   0.000579801 17.4917   334.043   21.9331   
5         1382.1    0.000579801 17.9027   333.632   21.9462   
5.1       1414.53   0.000579801 18.3118   333.223   21.96     
5.2       1448.42   0.000579801 18.7193   332.816   21.9412   
5.3       1485.8    0.000579801 19.1292   332.406   21.9781   
5.4       1514.32   0.000579801 19.5344   332.001   21.9665   
5.5       1549.82   0.000579801 19.946    331.589   21.9424   
5.6       1576.57   0.000579801 20.3595   331.175   21.9767   
5.7       1611.14   0.000579801 20.7768   330.758   21.923    
5.8       1645.34   0.000579801 21.1891   330.346   21.9467   
5.9       1675.22   0.000579801 21.6011   329.934   21.9733   
6         1714.78   0.000579801 22.0166   329.518   21.9249   
6.1       1745.08   0.000579801 22.4276   329.107   21.9434   
6.2       1779.46   0.000579801 22.84     328.695   21.9844   
6.3       1812.54   0.000579801 23.2519   328.283   21.9811   
6.4       1845.12   0.000579801 23.6672   327.868   21.9788   
6.5       1875.89   0.000579801 24.0806   327.454   21.9798   
6.6       1914.47   0.000579801 24.4932   327.042   21.9271   
6.7       1946.6    0.000579801 24.8997   326.635   21.965    
6.8       1977.37   0.000579801 25.3143   326.221   21.9849   
6.9       2018.27   0.000579801 25.7223   325.813   21.9614   
7         2049.09   0.000579801 26.133    325.402   21.9571   
7.1       2084.07   0.000579801 26.544    324.991   21.9778   
7.2       2111.27   0.000579801 26.9502   324.585   21.9741   
7.3       2154.4    0.000579801 27.3601   324.175   21.9834   
7.4       2188.12   0.000579801 27.769    323.766   21.9717   
7.5       2219.01   0.000579801 28.1794   323.356   21.9726   
7.6       2254.83   0.000579801 28.5941   322.941   21.9763   
7.7       2294.54   0.000579801 29.004    322.531   21.9602   
7.8       2329.54   0.000579801 29.4066   322.128   21.9865   
7.9       2357.97   0.000579801 29.8204   321.715   21.9545   
8         2393.52   0.000579801 30.2389   321.296   21.9771   
8.1       2430.11   0.000579801 30.6526   320.882   21.9858   
8.2       2467.91   0.000579801 31.0614   320.474   21.9792   
8.3       2500.41   0.000579801 31.4735   320.061   21.9814   
8.4       2540.72   0.000579801 31.8414   319.694   21.9498   
8.5       2565.68   0.000579801 31.8979   319.637   21.9599   
8.6       2551.18   0.000579801 31.7751   319.76    21.9514   
8.7       2526.95   0.000579801 31.5214   320.013   21.9277   
8.8       2491.81   0.000579801 31.1207   320.414   21.957    
8.9       2437.76   0.000579801 30.7163   320.819   21.9686   
9         2389.47   0.000579801 30.3278   321.207   21.9744   
9.1       2345.49   0.000579801 29.956    321.579   21.9706   
9.2       2297.8    0.000579801 29.5866   321.948   21.9716   
9.3       2260.28   0.000579801 29.2253   322.31    21.9819   
9.4       2221.48   0.000579801 28.8713   322.664   21.982    
9.5       2188.08   0.000579801 28.5087   323.026   21.9799   
9.6       2155.92   0.000579801 28.1403   323.395   21.9746   
9.7       2114.29   0.000579801 27.7582   323.777   21.9546   
9.8       2072.15   0.000579801 27.3843   324.151   21.9735   
9.9       2039.76   0.000579801 26.997    324.538   21.9428   
10        1997.13   0.000579801 26.601    324.934   21.9835   
10.1      1962.06   0.000579801 26.1997   325.335   21.9227   
10.2      1925.12   0.000579801 25.794    325.741   21.9543   
10.3      1889.08   0.000579801 25.3896   326.145   21.9856   
10.4      1847.06   0.000579801 24.982    326.553   21.9777   
10.5      1812.55   0.000579801 24.5747   326.96    21.9734   
10.6      1773.23   0.000579801 24.1666   327.368   21.9746   
10.7      1739.97   0.000579801 23.7555   327.779   21.9814   
10.8      1703.73   0.000579801 23.3433   328.192   21.9713   
10.9      1663.12   0.000579801 22.9297   328.605   21.9655   
11        1629.02   0.000579801 22.526    329.009   21.9837   
11.1      1592.36   0.000579801 22.1175   329.417   21.9643   
11.2      1558.73   0.000579801 21.7013   329.834   21.9353   
11.3      1523.79   0.000579801 21.2918   330.243   21.9858   
11.4      1491.18   0.000579801 20.8751   330.66    21.9634   
11.5      1452.77   0.000579801 20.4574   331.077   21.9818   
11.6      1424.98   0.000579801 20.0426   331.492   21.9839   
11.7      1380.08   0.000579801 19.6258   331.909   21.9886   
11.8      1350.54   0.000579801 19.2267   332.308   21.9583   
11.9      1320.83   0.000579801 18.8166   332.718   21.9738   
12        1282.38   0.000579801 18.3997   333.135   21.9744   
12.1      1253.74   0.000579801 17.988    333.547   21.9463   
12.2      1215.47   0.000579801 17.57     333.965   21.9714   
12.3      1186.03   0.000579801 17.1689   334.366   21.9868   
12.4      1157.72   0.000579801 16.7571   334.778   21.9638   
12.5      1121.18   0.000579801 16.3428   335.192   21.944    
12.6      1089.63   0.000579801 15.9272   335.608   21.9419   
12.7      1052.95   0.000579801 15.5117   336.023   21.942    
12.8      1022.39   0.000579801 15.0997   336.435   21.9474   
12.9      986.823   0.000579801 14.6851   336.85    21.973    
13        955.483   0.000579801 14.2676   337.267   21.9536   
13.1      922.91    0.000579801 13.8513   337.684   21.9272   
13.2      898.284   0.000579801 13.4386   338.096   21.9538   
13.3      861.013   0.000579801 13.0188   338.516   21.9397   
13.4      832.759   0.000579801 12.6027   338.932   21.93     
13.5      798.379   0.000579801 12.186    339.349   21.9848   
13.6      771.128   0.000579801 11.7686   339.766   21.9586   
13.7      740.406   0.000579801 11.3546   340.18    21.9505   
13.8      712.872   0.000579801 10.9385   340.596   21.9567   
13.9      679.147   0.000579801 10.5229   341.012   21.9752   
14        652.262   0.000579801 10.1058   341.429   21.9924   
14.1      621.215   0.000579801 9.68797   341.847   21.9579   
14.2      586.488   0.000579801 9.28178   342.253   21.9255   
14.3      557.247   0.000579801 8.86517   342.67    21.9843   
14.4      523.953   0.000579801 8.44707   343.088   21.952    
14.5      493.989   0.000579801 8.03838   343.497   21.9641   
14.6      462.87    0.000579801 7.62582   343.909   21.9604   
14.7      436.805   0.000579801 7.21454   344.32    21.9774   
14.8      402.73    0.000579801 6.79677   344.738   21.967    
14.9      375.791   0.000579801 6.38018   345.155   21.965    
15        349.934   0.000579801 5.96742   345.568   21.9876   
15.1      318.186   0.000579801 5.55124   345.984   21.977    
15.2      291.162   0.000579801 5.14718   346.388   21.9823   
15.3      265.036   0.000579801 4.73178   346.803   21.97     
15.4      233.955   0.000579801 4.31762   347.217   21.9621   
15.5      207.973   0.000579801 3.90515   347.63    21.9407   
15.6      178.152   0.000579801 3.48727   348.048   21.9639   
15.7      148.233   0.000579801 3.0731    348.462   21.9543   
15.8      125.327   0.000579801 2.65422   348.881   21.9688   
15.9      101.084   0.000579801 2.23744   349.297   21.9691   
16        74.0539   0.000579801 1.82059   349.714   21.9809   
16.1      52.8049   0.000579801 1.40565   350.129   21.9785   
16.2      31.1999   0.000579801 0.984591  350.55    21.9791   
16.3      9.01046   0.000579801 0.572278  350.963   21.972    
16.4      -2.65221  0.000579801 0.152046  351.383   21.9768   

**END