**HEADER
RELEASE   Release of TYDEX-Format                 1.3
MEASID    Measurement ID                          cvert_2p7_13fz342_P06cam0_110195_02
SUPPLIER  Data Supplier                           ika-fka / SteiReP / friederichs
DATE      Date                                    30/01/20
CLCKTIME  Clocktime                               14:07

**COMMENTS
------------------------------------
Bridgestone Potenza S001 MO 245/50R18 100W DOT4918
Vertical tyre stiffness on flat surface at 6.1 deg camber
------------------------------------

**CONSTANTS
LOCATION  Location                      -         ika-fka, Aachen
MANUFACT  Tyre brand name               -         Bridgestone
IDENTITY  Commercial name               -         Potenza S001 MO
INFLPRES  Inflation Pressure            bar       2.7
TYREMASS  Tyre mass                     kg        11.95
OVALLDIA  Measured outside diameter     m         0.708
NOMDIAME  Nominal diameter of tyre      m         0.7022
NOMWIDTH  Nominal section width of tyre m         0.245
ASPRATIO  Nominal aspect ratio          -         0.5
SPEEDSYM  Speed symbol                  -         W
LOADIND   Load index                    -         100
TYROTIN   Tyre rot. inertia about YC    kgm2      1.233
RIMDIAME  Nominal rim diameter          m         0.4572
RIMWIDTH  Rim width                     m         0.2032
RIMROTIN  Rim rotational inertia        kgm2      0.386
TESTRIG   Test rig                      -         Stiffness Tyre Test Rig
CURVTRSF  Curvature of track surface    1/m       0
TRCKSURF  Surface of Track              -         Korund P80
TRCKCOND  Condition of Track Surface    -         dry
SLIPANGL  Slip angle                    deg       0
INCLANGL  Inclination angle             deg       6.1
LONGVEL   Longitudinal velocity         m/s       0

**MEASURCHANNELS
RUNTIME   Running Time                  s         1         0         0
FZW       Vertical Force                N         1         0         0
INCLANGL  Inclination angle             deg       1         0         0
TYREDEFW  Tyre deflection               mm        1         0         0
DSTGRWHC  Dist. ground - WHL. centre    mm        1         0         0
TRDTEMP   Tread Surface Temperature     deg C     1         0         0

**MEASURDATA
0         -4.8041   6.11176   -0.0562109 353.903   22.1064   
0.1       2.43217   6.11176   0.0284579 353.819   22.1106   
0.2       4.81137   6.11176   0.117375  353.73    22.1141   
0.3       10.5552   6.11176   0.20675   353.64    22.1013   
0.4       14.2517   6.11176   0.300176  353.547   22.1065   
0.5       23.7628   6.11176   0.400533  353.447   22.1084   
0.6       33.1626   6.11176   0.50028   353.347   22.1114   
0.7       43.0669   6.11176   0.604309  353.243   22.0989   
0.8       56.4948   6.11176   0.700769  353.146   22.1088   
0.9       64.5873   6.11176   0.782887  353.064   22.1139   
1         77.1527   6.11176   0.902739  352.944   22.1089   
1.1       90.4981   6.11176   1.02766   352.82    22.1095   
1.2       104.623   6.11176   1.16133   352.686   22.1097   
1.3       125.112   6.11176   1.31092   352.536   22.1073   
1.4       138.727   6.11176   1.47445   352.373   22.1119   
1.5       163.264   6.11176   1.67562   352.172   22.1123   
1.6       191.894   6.11176   1.89189   351.955   22.1076   
1.7       219.65    6.11176   2.13573   351.711   22.1122   
1.8       249.344   6.11176   2.39107   351.456   22.108    
1.9       290.757   6.11176   2.65357   351.194   22.1103   
2         334.309   6.11176   2.9417    350.905   22.1057   
2.1       371.648   6.11176   3.22746   350.62    22.1085   
2.2       427.031   6.11176   3.51296   350.334   22.1092   
2.3       468.695   6.11176   3.77946   350.068   22.1099   
2.4       509.453   6.11176   4.04348   349.804   22.1154   
2.5       558.484   6.11176   4.30401   349.543   22.1115   
2.6       604.058   6.11176   4.55735   349.29    22.1074   
2.7       651.89    6.11176   4.8043    349.043   22.111    
2.8       696.048   6.11176   5.03323   348.814   22.1103   
2.9       736.156   6.11176   5.2566    348.591   22.1018   
3         769.595   6.11176   5.49755   348.35    22.1117   
3.1       822.513   6.11176   5.75038   348.097   22.1128   
3.2       870.365   6.11176   5.98183   347.865   22.1119   
3.3       907.327   6.11176   6.20717   347.64    22.1127   
3.4       951.481   6.11176   6.4386    347.409   22.11     
3.5       992.041   6.11176   6.66298   347.184   22.118    
3.6       1033.46   6.11176   6.89219   346.955   22.1077   
3.7       1077.27   6.11176   7.11887   346.728   22.1134   
3.8       1126.44   6.11176   7.34096   346.506   22.1039   
3.9       1166.82   6.11176   7.55551   346.292   22.1103   
4         1214.55   6.11176   7.76628   346.081   22.1064   
4.1       1252.65   6.11176   7.96002   345.887   22.1083   
4.2       1293.25   6.11176   8.16283   345.684   22.1107   
4.3       1337.53   6.11176   8.36953   345.478   22.1154   
4.4       1383.07   6.11176   8.55816   345.289   22.1057   
4.5       1417.57   6.11176   8.74835   345.099   22.1023   
4.6       1464.47   6.11176   8.9472    344.9     22.1071   
4.7       1506.05   6.11176   9.13251   344.715   22.1086   
4.8       1540.88   6.11176   9.3192    344.528   22.1097   
4.9       1588.02   6.11176   9.50753   344.34    22.1036   
5         1623.36   6.11176   9.68808   344.159   22.1068   
5.1       1664.77   6.11176   9.86902   343.978   22.112    
5.2       1706.23   6.11176   10.0424   343.805   22.1128   
5.3       1743.71   6.11176   10.2095   343.638   22.1051   
5.4       1773.64   6.11176   10.3831   343.464   22.1061   
5.5       1818.4    6.11176   10.5688   343.278   22.1062   
5.6       1863.15   6.11176   10.7434   343.104   22.1042   
5.7       1899.1    6.11176   10.9149   342.932   22.1088   
5.8       1941.71   6.11176   11.0974   342.75    22.1072   
5.9       1977.49   6.11176   11.271    342.576   22.1035   
6         2020.55   6.11176   11.4542   342.393   22.1113   
6.1       2059.07   6.11176   11.6374   342.21    22.109    
6.2       2098.58   6.11176   11.819    342.028   22.1163   
6.3       2142.03   6.11176   12.0081   341.839   22.1103   
6.4       2184.63   6.11176   12.1878   341.659   22.1185   
6.5       2223.51   6.11176   12.3652   341.482   22.1051   
6.6       2264.93   6.11176   12.5493   341.298   22.1082   
6.7       2308.16   6.11176   12.7294   341.118   22.1123   
6.8       2352.68   6.11176   12.9078   340.939   22.1047   
6.9       2393.4    6.11176   13.0795   340.768   22.1107   
7         2427.41   6.11176   13.251    340.596   22.1171   
7.1       2466.91   6.11176   13.4294   340.418   22.1129   
7.2       2503.7    6.11176   13.6121   340.235   22.1149   
7.3       2547.72   6.11176   13.8006   340.047   22.1121   
7.4       2592.1    6.11176   13.9852   339.862   22.1138   
7.5       2630.8    6.11176   14.1651   339.682   22.1161   
7.6       2675.08   6.11176   14.3455   339.502   22.1075   
7.7       2714.22   6.11176   14.5205   339.327   22.1118   
7.8       2755.8    6.11176   14.6983   339.149   22.114    
7.9       2799.68   6.11176   14.8741   338.973   22.1022   
8         2834.64   6.11176   15.041    338.806   22.1131   
8.1       2873.79   6.11176   15.2134   338.634   22.1025   
8.2       2921.44   6.11176   15.3866   338.461   22.1138   
8.3       2955.84   6.11176   15.5464   338.301   22.1124   
8.4       2989.01   6.11176   15.7164   338.131   22.1071   
8.5       3040.45   6.11176   15.8931   337.954   22.1112   
8.6       3085.29   6.11176   16.0514   337.796   22.115    
8.7       3120.74   6.11176   16.2101   337.637   22.1117   
8.8       3160.98   6.11176   16.3721   337.475   22.1127   
8.9       3195.47   6.11176   16.5386   337.309   22.1104   
9         3241.61   6.11176   16.7121   337.135   22.1095   
9.1       3282.95   6.11176   16.873    336.974   22.105    
9.2       3320.98   6.11176   17.047    336.8     22.1095   
9.3       3365.3    6.11176   17.2256   336.622   22.1139   
9.4       3411.5    6.11176   17.3967   336.45    22.1104   
9.5       3447.65   6.11176   17.558    336.289   22.1115   
9.6       3487.84   6.11176   17.7242   336.123   22.1099   
9.7       3533.53   6.11176   17.8954   335.952   22.106    
9.8       3573.75   6.11176   18.0514   335.796   22.1128   
9.9       3613.79   6.11176   18.2162   335.631   22.1112   
10        3652.04   6.11176   18.3796   335.468   22.1113   
10.1      3695.37   6.11176   18.5472   335.3     22.1128   
10.2      3740.55   6.11176   18.7106   335.137   22.1088   
10.3      3775.05   6.11176   18.8607   334.986   22.1053   
10.4      3818.1    6.11176   19.0205   334.827   22.1122   
10.5      3856.16   6.11176   19.1813   334.666   22.1159   
10.6      3901      6.11176   19.3377   334.51    22.1011   
10.7      3934.08   6.11176   19.4947   334.352   22.1135   
10.8      3978.75   6.11176   19.6594   334.188   22.1095   
10.9      4023.33   6.11176   19.8109   334.036   22.1031   
11        4052      6.11176   19.955    333.892   22.1085   
11.1      4091.27   6.11176   20.1198   333.727   22.1104   
11.2      4132.08   6.11176   20.2868   333.56    22.1086   
11.3      4177.93   6.11176   20.4544   333.393   22.1058   
11.4      4218.79   6.11176   20.621    333.226   22.1137   
11.5      4263.2    6.11176   20.7818   333.065   22.1059   
11.6      4304.36   6.11176   20.9485   332.899   22.1173   
11.7      4344.68   6.11176   21.1035   332.744   22.1108   
11.8      4389.17   6.11176   21.2606   332.587   22.1027   
11.9      4423.78   6.11176   21.4166   332.431   22.1102   
12        4460.47   6.11176   21.5764   332.271   22.1045   
12.1      4499.01   6.11176   21.7382   332.109   22.11     
12.2      4544.64   6.11176   21.9      331.947   22.1081   
12.3      4587.81   6.11176   22.0645   331.783   22.1153   
12.4      4626.56   6.11176   22.2194   331.628   22.1133   
12.5      4662.58   6.11176   22.3754   331.472   22.1107   
12.6      4704.92   6.11176   22.5408   331.306   22.1088   
12.7      4748.6    6.11176   22.6984   331.149   22.1165   
12.8      4793.96   6.11176   22.8524   330.995   22.1076   
12.9      4824.82   6.11176   23.0033   330.844   22.1166   
13        4867.97   6.11176   23.1596   330.688   22.1119   
13.1      4905.71   6.11176   23.3241   330.523   22.1027   
13.2      4952.46   6.11176   23.4838   330.363   22.1105   
13.3      4987.66   6.11176   23.6372   330.21    22.1049   
13.4      5024.84   6.11176   23.7962   330.051   22.1104   
13.5      5069.31   6.11176   23.9513   329.896   22.1071   
13.6      5106.63   6.11176   24.107    329.74    22.0968   
13.7      5148.91   6.11176   24.256    329.591   22.1046   
13.8      5185.43   6.11176   24.414    329.433   22.1098   
13.9      5223.93   6.11176   24.5726   329.275   22.111    
14        5268.13   6.11176   24.7338   329.113   22.1062   
14.1      5305.31   6.11176   24.8948   328.952   22.1146   
14.2      5347.57   6.11176   25.0539   328.793   22.1063   
14.3      5390.44   6.11176   25.2103   328.637   22.1175   
14.4      5426.94   6.11176   25.357    328.49    22.1118   
14.5      5461.33   6.11176   25.5048   328.342   22.1073   
14.6      5499.26   6.11176   25.6657   328.181   22.1176   
14.7      5537.92   6.11176   25.8258   328.021   22.1098   
14.8      5582.62   6.11176   25.9876   327.86    22.1058   
14.9      5626.42   6.11176   26.1388   327.708   22.1032   
15        5660.17   6.11176   26.2871   327.56    22.1026   
15.1      5702.22   6.11176   26.4421   327.405   22.1034   
15.2      5742.74   6.11176   26.5922   327.255   22.1064   
15.3      5777.48   6.11176   26.7529   327.094   22.1202   
15.4      5824.79   6.11176   26.9041   326.943   22.1134   
15.5      5858.99   6.11176   27.0474   326.8     22.1127   
15.6      5893.36   6.11176   27.1995   326.648   22.1087   
15.7      5934.96   6.11176   27.3592   326.488   22.1116   
15.8      5976.49   6.11176   27.5153   326.332   22.108    
15.9      6018.67   6.11176   27.6671   326.18    22.1037   
16        6056.47   6.11176   27.8226   326.025   22.1146   
16.1      6093.64   6.11176   27.9758   325.871   22.1152   
16.2      6140.92   6.11176   28.138    325.709   22.1066   
16.3      6181.07   6.11176   28.2899   325.557   22.1204   
16.4      6216.3    6.11176   28.4275   325.42    22.1079   
16.5      6249.69   6.11176   28.5668   325.28    22.1091   
16.6      6291.37   6.11176   28.711    325.136   22.1069   
16.7      6328.74   6.11176   28.8479   324.999   22.1037   
16.8      6362.58   6.11176   28.9933   324.854   22.1092   
16.9      6405.1    6.11176   29.1451   324.702   22.1123   
17        6449.84   6.11176   29.3008   324.546   22.106    
17.1      6482.83   6.11176   29.446    324.401   22.1058   
17.2      6526.36   6.11176   29.5976   324.25    22.1143   
17.3      6566.95   6.11176   29.7453   324.102   22.1131   
17.4      6602.65   6.11176   29.8884   323.959   22.109    
17.5      6643.07   6.11176   30.0377   323.809   22.105    
17.6      6687.08   6.11176   30.1822   323.665   22.1122   
17.7      6721.5    6.11176   30.3303   323.517   22.1039   
17.8      6762      6.11176   30.4786   323.369   22.1068   
17.9      6802.45   6.11176   30.6285   323.219   22.1008   
18        6847.59   6.11176   30.7781   323.069   22.1072   
18.1      6887.56   6.11176   30.923    322.924   22.1069   
18.2      6922.49   6.11176   31.0631   322.784   22.1133   
18.3      6960.33   6.11176   31.2135   322.634   22.1061   
18.4      7007.54   6.11176   31.3615   322.486   22.1008   
18.5      7039.65   6.11176   31.5036   322.344   22.0995   
18.6      7078.05   6.11176   31.6443   322.203   22.1099   
18.7      7121.96   6.11176   31.786    322.061   22.1092   
18.8      7155.11   6.11176   31.9239   321.923   22.1037   
18.9      7198.32   6.11176   32.0676   321.78    22.1092   
19        7235.07   6.11176   32.2073   321.64    22.1065   
19.1      7271.52   6.11176   32.3505   321.497   22.1052   
19.2      7311.8    6.11176   32.5056   321.342   22.1063   
19.3      7356.79   6.11176   32.6552   321.192   22.1102   
19.4      7393.13   6.11176   32.8028   321.044   22.106    
19.5      7430.4    6.11176   32.9493   320.898   22.1053   
19.6      7480.17   6.11176   33.0908   320.756   22.1053   
19.7      7516.12   6.11176   33.2304   320.617   22.1062   
19.8      7555.68   6.11176   33.3695   320.478   22.1029   
19.9      7591.56   6.11176   33.5088   320.338   22.1164   
20        7631.9    6.11176   33.6512   320.196   22.1072   
20.1      7671.23   6.11176   33.7971   320.05    22.1073   
20.2      7703.93   6.11176   33.9418   319.905   22.1105   
20.3      7745.03   6.11176   34.0937   319.754   22.1067   
20.4      7790.91   6.11176   34.2519   319.595   22.1046   
20.5      7834.51   6.11176   34.397    319.45    22.0986   
20.6      7873.39   6.11176   34.5473   319.3     22.1018   
20.7      7917.86   6.11176   34.7051   319.142   22.1077   
20.8      7963.17   6.11176   34.8574   318.99    22.1095   
20.9      8001.96   6.11177   35.0095   318.838   22.1059   
21        8043.33   6.11176   35.1546   318.693   22.1077   
21.1      8084.18   6.11177   35.3011   318.546   22.1105   
21.2      8124.05   6.11176   35.4438   318.403   22.1088   
21.3      8160.85   6.11177   35.5844   318.263   22.1057   
21.4      8206.17   6.11176   35.7336   318.114   22.1104   
21.5      8246.24   6.11177   35.8727   317.974   22.1097   
21.6      8284.73   6.11176   36.0165   317.831   22.1056   
21.7      8321.24   6.11184   36.1542   317.693   22.1117   
21.8      8358.22   6.11189   36.296    317.551   22.1113   
21.9      8404.76   6.11188   36.4483   317.399   22.1064   
22        8440.33   6.11189   36.5874   317.26    22.1112   
22.1      8479.96   6.11188   36.7306   317.117   22.112    
22.2      8520.28   6.11189   36.8799   316.967   22.1026   
22.3      8565.37   6.11188   37.0239   316.823   22.1103   
22.4      8603.93   6.11188   37.171    316.676   22.1091   
22.5      8643.97   6.11188   37.316    316.531   22.104    
22.6      8685.13   6.11188   37.4684   316.379   22.1069   
22.7      8729.08   6.11188   37.6199   316.227   22.1152   
22.8      8772.33   6.11188   37.7715   316.076   22.1081   
22.9      8812.26   6.11188   37.9179   315.929   22.1059   
23        8852.13   6.11188   38.0608   315.786   22.1077   
23.1      8893.46   6.11188   38.2094   315.638   22.1152   
23.2      8937.23   6.11188   38.3539   315.493   22.106    
23.3      8970.68   6.11188   38.4917   315.355   22.1166   
23.4      9010.3    6.11188   38.6389   315.208   22.1172   
23.5      9057.93   6.11188   38.785    315.062   22.1018   
23.6      9099.48   6.11188   38.9301   314.917   22.109    
23.7      9139.33   6.11188   39.0794   314.768   22.1083   
23.8      9180.09   6.11188   39.2221   314.625   22.1121   
23.9      9215.6    6.11188   39.3658   314.481   22.1084   
24        9260.58   6.11188   39.5164   314.331   22.1074   
24.1      9308.34   6.11188   39.6565   314.191   22.1141   
24.2      9337.15   6.11188   39.7941   314.053   22.1084   
24.3      9379.44   6.11188   39.9416   313.906   22.1105   
24.4      9425.84   6.11188   40.0853   313.762   22.1077   
24.5      9458.2    6.11188   40.2171   313.63    22.1009   
24.6      9496.45   6.11188   40.3419   313.505   22.1066   
24.7      9531.49   6.11188   40.4547   313.392   22.1195   
24.8      9561.16   6.11188   40.5814   313.266   22.1064   
24.9      9601.18   6.11188   40.7162   313.131   22.1096   
25        9642.64   6.11188   40.8575   312.99    22.113    
25.1      9678.13   6.11188   40.994    312.853   22.1138   
25.2      9718.5    6.11188   41.1316   312.716   22.1112   
25.3      9757.21   6.11188   41.2764   312.571   22.1086   
25.4      9796.13   6.11188   41.4168   312.43    22.113    
25.5      9841.33   6.11188   41.5657   312.281   22.1097   
25.6      9883.86   6.11188   41.7147   312.132   22.104    
25.7      9922.55   6.11188   41.8636   311.984   22.1108   
25.8      9969.98   6.11188   42.0201   311.827   22.119    
25.9      10009.1   6.11188   42.1652   311.682   22.1188   
26        10055.9   6.11188   42.3025   311.545   22.1087   
26.1      10090.6   6.11188   42.4387   311.408   22.1086   
26.2      10131.4   6.11188   42.5825   311.265   22.1143   
26.3      10169     6.11188   42.7298   311.117   22.1089   
26.4      10211.3   6.11188   42.8767   310.97    22.1108   
26.5      10258.2   6.11188   43.0222   310.825   22.1183   
26.6      10298.2   6.11188   43.169    310.678   22.112    
26.7      10342.4   6.11188   43.3207   310.527   22.1131   
26.8      10385     6.11188   43.4647   310.383   22.1055   
26.9      10426.8   6.11188   43.6087   310.239   22.1099   
27        10465.9   6.11188   43.7582   310.089   22.1133   
27.1      10514.5   6.11188   43.8993   309.948   22.1151   
27.2      10548.2   6.11188   44.0408   309.806   22.1116   
27.3      10584.8   6.11188   44.1854   309.662   22.1065   
27.4      10635.7   6.11188   44.334    309.513   22.1041   
27.5      10675.1   6.11188   44.4659   309.381   22.1064   
27.6      10713.1   6.11188   44.5888   309.258   22.1021   
27.7      10740.2   6.11188   44.7093   309.138   22.1071   
27.8      10779.5   6.11188   44.8403   309.007   22.1132   
27.9      10822.8   6.11188   44.9723   308.875   22.1145   
28        10856.8   6.11188   45.1013   308.746   22.1133   
28.1      10895.2   6.11188   45.2421   308.605   22.1135   
28.2      10936.7   6.11188   45.3825   308.465   22.109    
28.3      10973.1   6.11188   45.5172   308.33    22.1115   
28.4      11016.4   6.11188   45.6618   308.185   22.1143   
28.5      11056.4   6.11188   45.8021   308.045   22.1109   
28.6      11095.6   6.11188   45.9415   307.906   22.1167   
28.7      11142.5   6.11188   46.0943   307.753   22.1089   
28.8      11181.6   6.11188   46.2392   307.608   22.1081   
28.9      11223.3   6.11188   46.3824   307.465   22.1051   
29        11268.9   6.11188   46.5258   307.321   22.1082   
29.1      11307     6.11188   46.661    307.186   22.1138   
29.2      11348.5   6.11188   46.799    307.048   22.1052   
29.3      11388.2   6.11188   46.9322   306.915   22.1034   
29.4      11435     6.11188   47.0686   306.779   22.112    
29.5      11468     6.11188   47.1959   306.651   22.106    
29.6      11502.9   6.11188   47.3253   306.522   22.1052   
29.7      11541.9   6.11188   47.4551   306.392   22.1049   
29.8      11581.6   6.11188   47.5833   306.264   22.1061   
29.9      11619.7   6.11188   47.7138   306.133   22.1041   
30        11657.3   6.11188   47.8459   306.001   22.1044   
30.1      11696.9   6.11188   47.9792   305.868   22.1125   
30.2      11738.7   6.11188   48.1142   305.733   22.1109   
30.3      11777.9   6.11188   48.2464   305.601   22.1186   
30.4      11815.5   6.11188   48.3774   305.47    22.1111   
30.5      11853.5   6.11188   48.5118   305.335   22.112    
30.6      11898.3   6.11188   48.651    305.196   22.1039   
30.7      11935.2   6.11188   48.7889   305.058   22.1055   
30.8      11979.1   6.11188   48.9335   304.914   22.1181   
30.9      12024.9   6.11188   49.0786   304.769   22.1138   
31        12066.9   6.11188   49.2143   304.633   22.1082   
31.1      12105.1   6.11188   49.3488   304.498   22.1149   
31.2      12146.5   6.11188   49.4875   304.36    22.1153   
31.3      12189.1   6.11188   49.62     304.227   22.1128   
31.4      12225.3   6.11188   49.7513   304.096   22.1047   
31.5      12271.5   6.11188   49.8883   303.959   22.1095   
31.6      12310.4   6.11188   50.0186   303.829   22.115    
31.7      12347.1   6.11188   50.1472   303.7     22.1039   
31.8      12385.1   6.11188   50.284    303.563   22.112    
31.9      12427.5   6.11188   50.4224   303.425   22.1096   
32        12467.9   6.11188   50.5583   303.289   22.1026   
32.1      12508.3   6.11188   50.6945   303.153   22.1156   
32.2      12553.5   6.11188   50.8275   303.02    22.1144   
32.3      12592.5   6.11188   50.957    302.89    22.1138   
32.4      12631.8   6.11188   51.0908   302.756   22.1122   
32.5      12667.5   6.11188   51.2203   302.627   22.1009   
32.6      12703.9   6.11188   51.3599   302.487   22.1085   
32.7      12750.2   6.11188   51.5019   302.345   22.1096   
32.8      12795     6.11188   51.6379   302.209   22.1063   
32.9      12835.4   6.11188   51.7717   302.075   22.112    
33        12873.2   6.11188   51.9031   301.944   22.1141   
33.1      12912.2   6.11188   52.0376   301.81    22.1142   
33.2      12952.6   6.11188   52.1677   301.679   22.1175   
33.3      12995.6   6.11188   52.3014   301.546   22.1171   
33.4      13034     6.11188   52.4304   301.417   22.1135   
33.5      13070     6.11188   52.5653   301.282   22.1033   
33.6      13110.1   6.11188   52.7045   301.143   22.1165   
33.7      13158.9   6.11188   52.8395   301.008   22.1049   
33.8      13193.6   6.11188   52.966    300.881   22.1057   
33.9      13237.5   6.11188   53.0912   300.756   22.11     
34        13274.3   6.11188   53.2201   300.627   22.1093   
34.1      13309.6   6.11188   53.3502   300.497   22.1137   
34.2      13354.4   6.11188   53.4957   300.351   22.1122   
34.3      13390.8   6.11188   53.5643   300.283   22.1121   
34.4      13399.7   6.11188   53.6107   300.236   22.1127   
34.5      13417.9   6.11188   53.6367   300.211   22.1135   
34.6      13406     6.11188   53.5745   300.273   22.1054   
34.7      13369.4   6.11188   53.5014   300.346   22.1094   
34.8      13336.7   6.11188   53.4343   300.413   22.1105   
34.9      13316.2   6.11188   53.3742   300.473   22.1093   
35        13291.6   6.11188   53.2933   300.554   22.1158   
35.1      13253.5   6.11188   53.2131   300.634   22.1088   
35.2      13223     6.11188   53.1286   300.719   22.1178   
35.3      13185.5   6.11188   53.0234   300.824   22.114    
35.4      13144.8   6.11188   52.9219   300.925   22.1112   
35.5      13112.6   6.11188   52.8157   301.031   22.1103   
35.6      13069.1   6.11188   52.7001   301.147   22.112    
35.7      13028.7   6.11188   52.595    301.252   22.1064   
35.8      12991.8   6.11188   52.4887   301.358   22.1134   
35.9      12950.3   6.11188   52.3735   301.474   22.1082   
36        12915.5   6.11188   52.2594   301.588   22.1113   
36.1      12873.4   6.11188   52.1436   301.704   22.1144   
36.2      12834.7   6.11188   52.0259   301.821   22.1162   
36.3      12791.6   6.11188   51.9001   301.947   22.1207   
36.4      12748.6   6.11188   51.7732   302.074   22.122    
36.5      12705.1   6.11188   51.6466   302.201   22.1113   
36.6      12654     6.11188   51.5277   302.32    22.1038   
36.7      12616.8   6.11188   51.4184   302.429   22.1122   
36.8      12583     6.11188   51.2985   302.549   22.107    
36.9      12543.3   6.11188   51.1769   302.67    22.1097   
37        12492.6   6.11188   51.0493   302.798   22.1218   
37.1      12453     6.11188   50.9313   302.916   22.1165   
37.2      12415.2   6.11188   50.8158   303.031   22.1042   
37.3      12380     6.11188   50.7026   303.145   22.1066   
37.4      12342     6.11188   50.5847   303.262   22.1122   
37.5      12293.6   6.11188   50.4632   303.384   22.1116   
37.6      12259.5   6.11188   50.3499   303.497   22.1048   
37.7      12220.6   6.11188   50.2275   303.62    22.1137   
37.8      12181.5   6.11188   50.1054   303.742   22.111    
37.9      12142.3   6.11188   49.977    303.87    22.1116   
38        12091.4   6.11188   49.8481   303.999   22.1171   
38.1      12049.7   6.11188   49.7376   304.11    22.1103   
38.2      12019.9   6.11188   49.6229   304.224   22.106    
38.3      11982.6   6.11188   49.4951   304.352   22.1146   
38.4      11938.3   6.11188   49.3721   304.475   22.1091   
38.5      11894.6   6.11188   49.2487   304.599   22.1141   
38.6      11857.8   6.11188   49.1293   304.718   22.1102   
38.7      11812.9   6.11188   49.0069   304.84    22.1089   
38.8      11780.1   6.11188   48.889    304.958   22.1094   
38.9      11744.1   6.11188   48.7647   305.082   22.1144   
39        11702.1   6.11188   48.6363   305.211   22.1172   
39.1      11656     6.11188   48.515    305.332   22.1058   
39.2      11622.2   6.11188   48.3877   305.459   22.1073   
39.3      11575.6   6.11188   48.2583   305.589   22.1142   
39.4      11531.1   6.11188   48.1287   305.718   22.1118   
39.5      11492.6   6.11188   48.0031   305.844   22.1103   
39.6      11455.5   6.11188   47.88     305.967   22.1166   
39.7      11418.1   6.11188   47.7498   306.097   22.1095   
39.8      11374     6.11188   47.6157   306.231   22.1108   
39.9      11331.5   6.11188   47.4866   306.361   22.1166   
40        11285.6   6.11188   47.3618   306.485   22.1065   
40.1      11255.2   6.11188   47.2353   306.612   22.1145   
40.2      11213.8   6.11188   47.1009   306.746   22.1058   
40.3      11168.6   6.11188   46.967    306.88    22.1082   
40.4      11124.6   6.11188   46.8312   307.016   22.1098   
40.5      11083.3   6.11188   46.6979   307.149   22.1153   
40.6      11043.9   6.11188   46.5618   307.285   22.1047   
40.7      11004.4   6.11188   46.4262   307.421   22.1171   
40.8      10958.7   6.11188   46.2938   307.553   22.1172   
40.9      10916.4   6.11188   46.1584   307.689   22.1122   
41        10875.8   6.11188   46.0312   307.816   22.1115   
41.1      10841.3   6.11188   45.9001   307.947   22.1157   
41.2      10792.5   6.11188   45.7648   308.082   22.1112   
41.3      10757.7   6.11188   45.6385   308.209   22.1063   
41.4      10718.8   6.11188   45.5052   308.342   22.1185   
41.5      10677.2   6.11188   45.3795   308.468   22.1085   
41.6      10643.2   6.11188   45.2457   308.601   22.1121   
41.7      10599.6   6.11188   45.1113   308.736   22.1161   
41.8      10559.1   6.11188   44.9784   308.869   22.1038   
41.9      10519.5   6.11188   44.8432   309.004   22.1192   
42        10474.2   6.11188   44.7093   309.138   22.1149   
42.1      10430     6.11188   44.5728   309.274   22.1152   
42.2      10392.8   6.11188   44.4446   309.403   22.1166   
42.3      10356.6   6.11188   44.3115   309.536   22.1147   
42.4      10315.3   6.11188   44.1791   309.668   22.1105   
42.5      10280     6.11188   44.0588   309.788   22.1097   
42.6      10241     6.11188   43.9323   309.915   22.1143   
42.7      10201.8   6.11188   43.7983   310.049   22.1099   
42.8      10155.9   6.11188   43.6699   310.177   22.1158   
42.9      10122.4   6.11188   43.5487   310.298   22.1102   
43        10086.8   6.11188   43.4171   310.43    22.1076   
43.1      10044.1   6.11188   43.276    310.571   22.107    
43.2      10007.6   6.11188   43.1416   310.706   22.1108   
43.3      9964.53   6.11188   43.0029   310.844   22.1097   
43.4      9923.18   6.11188   42.8631   310.984   22.1141   
43.5      9886.73   6.11188   42.7233   311.124   22.1155   
43.6      9838.98   6.11188   42.5767   311.27    22.1061   
43.7      9796.43   6.11188   42.4396   311.408   22.1087   
43.8      9758.74   6.11188   42.3042   311.543   22.1116   
43.9      9720.39   6.11188   42.1625   311.685   22.1163   
44        9674.53   6.11188   42.02     311.827   22.1159   
44.1      9631.02   6.11188   41.8866   311.961   22.1054   
44.2      9591.53   6.11188   41.7508   312.096   22.1142   
44.3      9558.01   6.11188   41.6116   312.236   22.1048   
44.4      9515.01   6.11188   41.4777   312.369   22.1272   
44.5      9478.59   6.11188   41.3487   312.498   22.1534   
44.6      9437.43   6.11188   41.2178   312.629   22.0955   
44.7      9398.29   6.11188   41.0868   312.76    22.1064   
44.8      9363.21   6.11188   40.9521   312.895   22.1016   
44.9      9324.14   6.11188   40.8182   313.029   22.1015   
45        9284.92   6.11188   40.6762   313.171   22.1094   
45.1      9238.51   6.11188   40.5342   313.313   22.1143   
45.2      9201.77   6.11188   40.4009   313.446   22.1066   
45.3      9158.95   6.11188   40.2573   313.59    22.1081   
45.4      9121.25   6.11188   40.1159   313.731   22.1151   
45.5      9081.04   6.11188   39.9688   313.878   22.1044   
45.6      9036.27   6.11188   39.8258   314.021   22.1079   
45.7      8996.23   6.11188   39.6885   314.159   22.124    
45.8      8957.88   6.11188   39.5441   314.303   22.1054   
45.9      8915.38   6.11188   39.3997   314.447   22.1121   
46        8874.98   6.11188   39.2547   314.592   22.1034   
46.1      8830.56   6.11188   39.1082   314.739   22.1123   
46.2      8785.14   6.11188   38.9688   314.878   22.1139   
46.3      8750.36   6.11188   38.8395   315.008   22.1124   
46.4      8712.87   6.11188   38.6992   315.148   22.112    
46.5      8669.66   6.11188   38.5527   315.294   22.1105   
46.6      8631.11   6.11188   38.406    315.441   22.1084   
46.7      8588.41   6.11188   38.2652   315.582   22.1138   
46.8      8544.32   6.11188   38.1289   315.718   22.1078   
46.9      8511.94   6.11188   37.9852   315.862   22.1107   
47        8472.5    6.11188   37.8437   316.003   22.1063   
47.1      8431.17   6.11188   37.7008   316.146   22.1082   
47.2      8384.87   6.11188   37.5592   316.288   22.1108   
47.3      8351.99   6.11188   37.4224   316.425   22.1087   
47.4      8309.55   6.11188   37.2764   316.571   22.1129   
47.5      8262.11   6.11188   37.1355   316.712   22.1079   
47.6      8234.12   6.11188   37.0065   316.841   22.1143   
47.7      8193.9    6.11188   36.8595   316.988   22.1091   
47.8      8145.89   6.11188   36.7197   317.127   22.1094   
47.9      8113.5    6.11188   36.5829   317.264   22.1097   
48        8069.77   6.11188   36.4396   317.408   22.1108   
48.1      8032.17   6.11188   36.3011   317.546   22.1126   
48.2      7996.98   6.11188   36.1591   317.688   22.1093   
48.3      7953.62   6.11188   36.0114   317.836   22.1164   
48.4      7906.37   6.11188   35.86     317.987   22.1167   
48.5      7867.41   6.11188   35.7153   318.132   22.1049   
48.6      7828      6.11188   35.5644   318.283   22.1133   
48.7      7782.07   6.11188   35.4065   318.441   22.1131   
48.8      7744.42   6.11188   35.2604   318.587   22.1144   
48.9      7704.5    6.11188   35.1143   318.733   22.1107   
49        7656.71   6.11188   34.9611   318.886   22.1044   
49.1      7617.88   6.11188   34.8186   319.029   22.104    
49.2      7568.92   6.11188   34.6675   319.18    22.1193   
49.3      7534.83   6.11188   34.5269   319.32    22.116    
49.4      7499.67   6.11188   34.3856   319.462   22.1123   
49.5      7454.6    6.11188   34.228    319.619   22.1185   
49.6      7413.58   6.11188   34.0653   319.782   22.11     
49.7      7364.98   6.11188   33.9075   319.94    22.1098   
49.8      7323.55   6.11188   33.7636   320.084   22.1068   
49.9      7286.9    6.11188   33.6073   320.24    22.1101   
50        7239.67   6.11188   33.4566   320.391   22.1141   
50.1      7198.95   6.11188   33.3178   320.529   22.1205   
50.2      7167.2    6.11188   33.1732   320.674   22.1189   
50.3      7121.9    6.11188   33.0198   320.827   22.1171   
50.4      7074.12   6.11188   32.8689   320.978   22.1131   
50.5      7040.79   6.11188   32.7211   321.126   22.1183   
50.6      6999.01   6.11188   32.5634   321.284   22.1105   
50.7      6950.08   6.11188   32.4144   321.433   22.1151   
50.8      6914.14   6.11188   32.2665   321.581   22.1153   
50.9      6873.66   6.11188   32.1165   321.731   22.1049   
51        6829.48   6.11188   31.9647   321.882   22.1073   
51.1      6791.01   6.11188   31.8151   322.032   22.1015   
51.2      6754.57   6.11188   31.6643   322.183   22.108    
51.3      6707.12   6.11188   31.5148   322.332   22.11     
51.4      6670.84   6.11188   31.3654   322.482   22.1183   
51.5      6624.97   6.11188   31.2146   322.633   22.1155   
51.6      6589.38   6.11188   31.063    322.784   22.1147   
51.7      6546.9    6.11188   30.9096   322.938   22.1141   
51.8      6504.68   6.11188   30.7539   323.093   22.1122   
51.9      6466.99   6.11188   30.6017   323.245   22.1172   
52        6423.64   6.11188   30.4538   323.393   22.111    
52.1      6377.67   6.11188   30.3035   323.544   22.1149   
52.2      6346.66   6.11188   30.1599   323.687   22.1162   
52.3      6309.12   6.11188   30.0038   323.843   22.1119   
52.4      6267.32   6.11188   29.8495   323.998   22.1155   
52.5      6223.68   6.11188   29.6966   324.151   22.1154   
52.6      6181.68   6.11188   29.5448   324.302   22.1128   
52.7      6147.24   6.11188   29.4029   324.444   22.1069   
52.8      6101.88   6.11188   29.2551   324.592   22.1133   
52.9      6065.93   6.11188   29.1076   324.74    22.1095   
53        6029.49   6.11188   28.9578   324.889   22.1106   
53.1      5982.13   6.11188   28.7983   325.049   22.1141   
53.2      5950.2    6.11188   28.6504   325.197   22.1138   
53.3      5910.79   6.11188   28.4959   325.351   22.1132   
53.4      5865.81   6.11188   28.3348   325.512   22.1067   
53.5      5825.25   6.11188   28.1821   325.665   22.1193   
53.6      5786.26   6.11188   28.0337   325.813   22.109    
53.7      5751.82   6.11188   27.8838   325.963   22.1135   
53.8      5706.79   6.11188   27.7224   326.125   22.1146   
53.9      5668.62   6.11188   27.5712   326.276   22.1127   
54        5634.11   6.11188   27.417    326.43    22.1102   
54.1      5585.25   6.11188   27.2496   326.598   22.1077   
54.2      5555.54   6.11188   27.0931   326.754   22.114    
54.3      5512.11   6.11188   26.9276   326.92    22.0986   
54.4      5467.18   6.11188   26.7666   327.081   22.1135   
54.5      5426.74   6.11188   26.6052   327.242   22.1051   
54.6      5378.28   6.11188   26.4423   327.405   22.104    
54.7      5337.88   6.11188   26.2848   327.562   22.1176   
54.8      5306.82   6.11188   26.1254   327.722   22.1085   
54.9      5265.23   6.11188   25.9515   327.896   22.1058   
55        5217.74   6.11188   25.7821   328.065   22.1052   
55.1      5177.34   6.11188   25.6272   328.22    22.1022   
55.2      5134.99   6.11188   25.4695   328.378   22.1062   
55.3      5096.4    6.11188   25.3094   328.538   22.107    
55.4      5057.87   6.11188   25.1504   328.697   22.0987   
55.5      5016.33   6.11188   24.9879   328.859   22.1111   
55.6      4975.07   6.11188   24.8205   329.027   22.1076   
55.7      4931.14   6.11188   24.6574   329.19    22.1081   
55.8      4893.77   6.11188   24.4957   329.351   22.114    
55.9      4854      6.11188   24.3301   329.517   22.0996   
56        4811.52   6.11188   24.166    329.681   22.1139   
56.1      4772.38   6.11188   24.004    329.843   22.1176   
56.2      4731.52   6.11188   23.8351   330.012   22.1192   
56.3      4684.08   6.11188   23.6751   330.172   22.1027   
56.4      4652.7    6.11188   23.5211   330.326   22.1108   
56.5      4605.48   6.11188   23.3516   330.496   22.1077   
56.6      4564.39   6.11188   23.1719   330.675   22.1092   
56.7      4515.49   6.11188   22.9853   330.862   22.1011   
56.8      4470.84   6.11188   22.8094   331.038   22.106    
56.9      4424.25   6.11188   22.6435   331.204   22.1061   
57        4388.38   6.11188   22.4831   331.364   22.1051   
57.1      4349.58   6.11188   22.3149   331.532   22.1026   
57.2      4300.87   6.11188   22.1459   331.701   22.109    
57.3      4256.68   6.11189   21.9827   331.864   22.106    
57.4      4226.75   6.11188   21.8271   332.02    22.1137   
57.5      4182.03   6.11189   21.6609   332.186   22.1047   
57.6      4142.94   6.11188   21.4917   332.356   22.103    
57.7      4095.98   6.11189   21.315    332.532   22.1162   
57.8      4049.55   6.11187   21.1521   332.695   22.1073   
57.9      4019.5    6.11177   20.992    332.855   22.1052   
58        3977.43   6.11177   20.8193   333.028   22.1065   
58.1      3930.2    6.11176   20.6504   333.197   22.1072   
58.2      3889.58   6.11177   20.4821   333.365   22.1133   
58.3      3845.2    6.11176   20.3193   333.528   22.1148   
58.4      3804.29   6.11177   20.1612   333.686   22.1065   
58.5      3778.36   6.11176   20.0042   333.843   22.1021   
58.6      3731.34   6.11176   19.8438   334.003   22.1072   
58.7      3689.53   6.11176   19.6977   334.15    22.1057   
58.8      3658.71   6.11176   19.5487   334.298   22.1113   
58.9      3622.57   6.11176   19.3914   334.456   22.1168   
59        3582.58   6.11176   19.2228   334.624   22.1085   
59.1      3536.6    6.11176   19.0543   334.793   22.1077   
59.2      3494.5    6.11176   18.896    334.951   22.1047   
59.3      3460.99   6.11176   18.7452   335.102   22.109    
59.4      3426.94   6.11176   18.5788   335.268   22.1137   
59.5      3382.7    6.11176   18.4048   335.442   22.1059   
59.6      3336.55   6.11176   18.2367   335.61    22.1091   
59.7      3297.66   6.11176   18.0654   335.782   22.107    
59.8      3251.42   6.11176   17.8921   335.955   22.1036   
59.9      3213.06   6.11176   17.7207   336.126   22.097    
60        3174.98   6.11176   17.5613   336.286   22.1093   
60.1      3136.73   6.11176   17.3909   336.456   22.1086   
60.2      3096.06   6.11176   17.2211   336.626   22.1075   
60.3      3062.38   6.11176   17.0501   336.797   22.1142   
60.4      3014.16   6.11176   16.8723   336.975   22.105    
60.5      2971.75   6.11176   16.7029   337.144   22.1109   
60.6      2926.18   6.11176   16.5276   337.32    22.1132   
60.7      2890.86   6.11176   16.3568   337.49    22.1007   
60.8      2852.39   6.11176   16.19     337.657   22.1051   
60.9      2816.92   6.11176   16.0117   337.836   22.1079   
61        2776.36   6.11176   15.8313   338.016   22.1102   
61.1      2730.76   6.11176   15.6487   338.198   22.1077   
61.2      2693.58   6.11176   15.4681   338.379   22.1014   
61.3      2649.68   6.11176   15.293    338.554   22.0976   
61.4      2612.32   6.11176   15.1116   338.736   22.112    
61.5      2567.85   6.11176   14.9394   338.908   22.1109   
61.6      2535.57   6.11176   14.7657   339.081   22.1047   
61.7      2494.36   6.11176   14.58     339.267   22.0977   
61.8      2452.9    6.11176   14.3907   339.456   22.1121   
61.9      2412.9    6.11176   14.1997   339.647   22.105    
62        2365      6.11176   14.0152   339.832   22.1055   
62.1      2324.56   6.11176   13.8297   340.018   22.1026   
62.2      2286.56   6.11176   13.6489   340.198   22.1007   
62.3      2246.48   6.11176   13.471    340.376   22.1085   
62.4      2209.93   6.11176   13.2881   340.559   22.1041   
62.5      2170.29   6.11176   13.1019   340.745   22.1024   
62.6      2129.87   6.11176   12.9134   340.934   22.1061   
62.7      2088.35   6.11176   12.7266   341.121   22.1111   
62.8      2046.36   6.11176   12.5469   341.3     22.1068   
62.9      2007.17   6.11176   12.3652   341.482   22.1049   
63        1967.34   6.11176   12.1853   341.662   22.1089   
63.1      1929.57   6.11176   12.0087   341.838   22.1063   
63.2      1898.34   6.11176   11.8312   342.016   22.1109   
63.3      1854.41   6.11176   11.6365   342.211   22.1142   
63.4      1813.11   6.11176   11.4478   342.399   22.1033   
63.5      1772.29   6.11176   11.2647   342.582   22.1035   
63.6      1731.6    6.11176   11.0771   342.77    22.1097   
63.7      1688.61   6.11176   10.8882   342.959   22.1097   
63.8      1648.25   6.11176   10.701    343.146   22.1089   
63.9      1608.43   6.11176   10.5199   343.327   22.1095   
64        1571.35   6.11176   10.3318   343.515   22.116    
64.1      1537.64   6.11176   10.1422   343.705   22.1039   
64.2      1492.52   6.11176   9.94964   343.898   22.1002   
64.3      1451.69   6.11176   9.75503   344.092   22.1103   
64.4      1413.62   6.11176   9.56258   344.285   22.1082   
64.5      1368.86   6.11176   9.3649    344.482   22.1124   
64.6      1331.14   6.11176   9.17396   344.673   22.1083   
64.7      1296.76   6.11176   8.98724   344.86    22.1043   
64.8      1254.67   6.11176   8.78683   345.06    22.108    
64.9      1213.48   6.11176   8.59356   345.254   22.1087   
65        1179.67   6.11176   8.39904   345.448   22.1048   
65.1      1140.76   6.11176   8.19533   345.652   22.1109   
65.2      1095.05   6.11176   7.99107   345.856   22.1015   
65.3      1058.72   6.11176   7.78742   346.06    22.1093   
65.4      1022.84   6.11176   7.5882    346.259   22.1054   
65.5      982.909   6.11176   7.38057   346.467   22.1024   
65.6      948.859   6.11176   7.17597   346.671   22.1141   
65.7      912.32    6.11176   6.9816    346.866   22.1116   
65.8      876.531   6.11176   6.79196   347.055   22.1082   
65.9      849.93    6.11176   6.5958    347.251   22.1117   
66        811.506   6.11176   6.38084   347.466   22.1159   
66.1      768.273   6.11176   6.15961   347.688   22.1161   
66.2      734.95    6.11176   5.94694   347.9     22.1136   
66.3      693.203   6.11176   5.73047   348.117   22.1203   
66.4      654.679   6.11176   5.5076    348.34    22.1082   
66.5      617.561   6.11176   5.28978   348.557   22.1183   
66.6      582.22    6.11176   5.06457   348.783   22.112    
66.7      544.385   6.11176   4.83423   349.013   22.1113   
66.8      508.433   6.11176   4.60267   349.245   22.1147   
66.9      470.855   6.11176   4.36318   349.484   22.1145   
67        433.26    6.11176   4.12127   349.726   22.1094   
67.1      392.463   6.11176   3.87857   349.969   22.1088   
67.2      352.702   6.11176   3.62982   350.217   22.1099   
67.3      324.127   6.11176   3.38024   350.467   22.1083   
67.4      286.066   6.11176   3.11646   350.731   22.1083   
67.5      248.694   6.11176   2.84739   351       22.1154   
67.6      215.05    6.11176   2.57029   351.277   22.1112   
67.7      184.573   6.11176   2.28106   351.566   22.1134   
67.8      147.052   6.11176   1.98265   351.865   22.1124   
67.9      111.064   6.11176   1.67795   352.169   22.0966   
68        77.3585   6.11176   1.37569   352.471   22.114    
68.1      52.5929   6.11176   1.06393   352.783   22.1114   
68.2      19.0486   6.11176   0.727601  353.12    22.1055   
68.3      -0.299864 6.11176   0.378906  353.468   22.1102   
68.4      -0.989899 6.11176   0.0566458 353.791   22.1129   

**END